Data from LowRes_mercury_15_20_11_07_2024_HR4C61881__77__15-23-39-970.txt Node

Date: Thu Nov 07 15:23:39 EST 2024
User: crc00042
Spectrometer: HR4C6188
Trigger mode: 4
Integration Time (sec): 1.000000E-1
Scans to average: 1
Electric dark correction enabled: true
Nonlinearity correction enabled: false
Boxcar width: 0
XAxis mode: Wavelengths
Number of Pixels in Spectrum: 3648
>>>>>Begin Spectral Data<<<<<
245.66	-61.54
245.797	-61.54
245.934	-61.54
246.071	-74.54
246.208	3.46
246.344	1.46
246.481	-13.54
246.618	-5.54
246.755	11.46
246.892	11.46
247.029	-2.54
247.165	-10.54
247.302	13.46
247.439	-15.54
247.576	10.46
247.713	-12.54
247.849	36.46
247.986	-24.54
248.123	-0.54
248.26	-7.54
248.396	18.46
248.533	1.46
248.67	-5.54
248.806	12.46
248.943	-14.54
249.08	-3.54
249.216	-4.54
249.353	-12.54
249.49	3.46
249.626	0.46
249.763	2.46
249.9	-3.54
250.036	1.46
250.173	13.46
250.309	8.46
250.446	10.46
250.582	9.46
250.719	-3.54
250.856	-3.54
250.992	11.46
251.129	-0.54
251.265	-5.54
251.402	6.46
251.538	3.46
251.675	8.46
251.811	14.46
251.948	15.46
252.084	-2.54
252.221	-7.54
252.357	-8.54
252.493	32.46
252.63	2.46
252.766	9.46
252.903	-2.54
253.039	2.46
253.175	-2.54
253.312	12.46
253.448	-1.54
253.585	-14.54
253.721	16.46
253.857	3.46
253.994	10.46
254.13	-5.54
254.266	7.46
254.403	8.46
254.539	10.46
254.675	19.46
254.811	15.46
254.948	15.46
255.084	-4.54
255.22	-10.54
255.356	-7.54
255.493	29.46
255.629	17.46
255.765	2.46
255.901	0.46
256.037	1.46
256.174	20.46
256.31	-26.54
256.446	12.46
256.582	8.46
256.718	20.46
256.854	25.46
256.991	14.46
257.127	11.46
257.263	17.46
257.399	14.46
257.535	2.46
257.671	7.46
257.807	-1.54
257.943	-14.54
258.079	0.46
258.215	-2.54
258.351	9.46
258.487	-3.54
258.623	13.46
258.759	0.46
258.895	-7.54
259.031	18.46
259.167	7.46
259.303	27.46
259.439	-7.54
259.575	-8.54
259.711	-13.54
259.847	-9.54
259.983	10.46
260.119	2.46
260.255	6.46
260.391	-6.54
260.527	6.46
260.663	28.46
260.799	-2.54
260.934	7.46
261.07	-7.54
261.206	-29.54
261.342	-16.54
261.478	-2.54
261.614	14.46
261.749	7.46
261.885	-10.54
262.021	4.46
262.157	18.46
262.293	7.46
262.428	-6.54
262.564	1.46
262.7	-1.54
262.836	8.46
262.971	20.46
263.107	9.46
263.243	23.46
263.378	17.46
263.514	-26.54
263.65	3.46
263.785	-8.54
263.921	-4.54
264.057	10.46
264.192	23.46
264.328	13.46
264.464	-19.54
264.599	-3.54
264.735	4.46
264.871	4.46
265.006	0.46
265.142	6.46
265.277	10.46
265.413	11.46
265.548	27.46
265.684	21.46
265.819	15.46
265.955	-7.54
266.091	-20.54
266.226	-7.54
266.362	-17.54
266.497	1.46
266.633	-4.54
266.768	-6.54
266.903	28.46
267.039	24.46
267.174	31.46
267.31	-9.54
267.445	-0.54
267.581	5.46
267.716	22.46
267.851	13.46
267.987	10.46
268.122	14.46
268.258	-11.54
268.393	-16.54
268.528	-4.54
268.664	-17.54
268.799	8.46
268.934	0.46
269.07	10.46
269.205	8.46
269.34	30.46
269.476	8.46
269.611	0.46
269.746	14.46
269.881	15.46
270.017	30.46
270.152	5.46
270.287	-13.54
270.422	16.46
270.558	2.46
270.693	14.46
270.828	-2.54
270.963	5.46
271.098	4.46
271.234	6.46
271.369	6.46
271.504	7.46
271.639	-11.54
271.774	-10.54
271.909	-3.54
272.045	-18.54
272.18	18.46
272.315	-5.54
272.45	-7.54
272.585	3.46
272.72	2.46
272.855	16.46
272.99	17.46
273.125	9.46
273.26	-2.54
273.395	2.46
273.53	-4.54
273.665	18.46
273.8	5.46
273.935	8.46
274.07	14.46
274.205	7.46
274.34	10.46
274.475	10.46
274.61	25.46
274.745	0.46
274.88	30.46
275.015	-9.54
275.15	1.46
275.285	2.46
275.42	12.46
275.555	33.46
275.69	12.46
275.825	15.46
275.959	27.46
276.094	3.46
276.229	-5.54
276.364	-5.54
276.499	9.46
276.634	0.46
276.768	8.46
276.903	12.46
277.038	16.46
277.173	15.46
277.308	16.46
277.442	0.46
277.577	-8.54
277.712	9.46
277.847	-8.54
277.981	6.46
278.116	-8.54
278.251	8.46
278.386	-12.54
278.52	29.46
278.655	0.46
278.79	19.46
278.924	3.46
279.059	9.46
279.194	-10.54
279.328	33.46
279.463	3.46
279.598	29.46
279.732	13.46
279.867	15.46
280.001	6.46
280.136	0.46
280.271	23.46
280.405	3.46
280.54	-3.54
280.674	-6.54
280.809	17.46
280.943	2.46
281.078	2.46
281.213	19.46
281.347	-4.54
281.482	3.46
281.616	-12.54
281.751	-17.54
281.885	-14.54
282.02	6.46
282.154	6.46
282.288	-15.54
282.423	-3.54
282.557	-0.54
282.692	17.46
282.826	8.46
282.961	26.46
283.095	3.46
283.229	10.46
283.364	-1.54
283.498	-0.54
283.633	12.46
283.767	21.46
283.901	-3.54
284.036	8.46
284.17	15.46
284.304	-3.54
284.439	-5.54
284.573	4.46
284.707	0.46
284.842	-5.54
284.976	-3.54
285.11	-0.54
285.244	-5.54
285.379	53.46
285.513	-6.54
285.647	4.46
285.781	3.46
285.916	22.46
286.05	1.46
286.184	27.46
286.318	19.46
286.453	3.46
286.587	-1.54
286.721	4.46
286.855	6.46
286.989	20.46
287.123	4.46
287.258	-10.54
287.392	-5.54
287.526	-2.54
287.66	0.46
287.794	10.46
287.928	-11.54
288.062	15.46
288.196	3.46
288.33	25.46
288.464	32.46
288.598	9.46
288.733	3.46
288.867	38.46
289.001	2.46
289.135	1.46
289.269	-1.54
289.403	18.46
289.537	2.46
289.671	-0.54
289.805	-6.54
289.939	2.46
290.073	7.46
290.207	18.46
290.34	-1.54
290.474	29.46
290.608	16.46
290.742	19.46
290.876	13.46
291.01	11.46
291.144	30.46
291.278	33.46
291.412	5.46
291.546	-1.54
291.679	1.46
291.813	8.46
291.947	9.46
292.081	-1.54
292.215	11.46
292.349	11.46
292.482	0.46
292.616	11.46
292.75	2.46
292.884	21.46
293.018	18.46
293.151	-5.54
293.285	13.46
293.419	-1.54
293.553	10.46
293.686	-6.54
293.82	-1.54
293.954	26.46
294.088	27.46
294.221	-1.54
294.355	14.46
294.489	2.46
294.622	17.46
294.756	-4.54
294.89	9.46
295.023	12.46
295.157	-1.54
295.291	13.46
295.424	3.46
295.558	14.46
295.691	0.46
295.825	5.46
295.959	-0.54
296.092	-12.54
296.226	6.46
296.359	6.46
296.493	11.46
296.627	15.46
296.76	8.46
296.894	12.46
297.027	16.46
297.161	23.46
297.294	-10.54
297.428	15.46
297.561	30.46
297.695	-6.54
297.828	-4.54
297.962	14.46
298.095	-0.54
298.229	11.46
298.362	-8.54
298.495	-16.54
298.629	-22.54
298.762	0.46
298.896	3.46
299.029	-3.54
299.162	13.46
299.296	4.46
299.429	9.46
299.563	10.46
299.696	12.46
299.829	9.46
299.963	20.46
300.096	9.46
300.229	23.46
300.363	-7.54
300.496	20.46
300.629	-6.54
300.763	-17.54
300.896	-9.54
301.029	11.46
301.162	12.46
301.296	-5.54
301.429	21.46
301.562	-13.54
301.695	14.46
301.829	11.46
301.962	20.46
302.095	7.46
302.228	14.46
302.362	20.46
302.495	-8.54
302.628	1.46
302.761	-3.54
302.894	-4.54
303.027	18.46
303.161	5.46
303.294	1.46
303.427	8.46
303.56	9.46
303.693	1.46
303.826	6.46
303.959	-16.54
304.092	10.46
304.225	-7.54
304.359	2.46
304.492	2.46
304.625	2.46
304.758	12.46
304.891	-4.54
305.024	10.46
305.157	11.46
305.29	-18.54
305.423	-2.54
305.556	11.46
305.689	26.46
305.822	-0.54
305.955	21.46
306.088	5.46
306.221	18.46
306.354	7.46
306.487	23.46
306.62	10.46
306.752	3.46
306.885	16.46
307.018	22.46
307.151	14.46
307.284	29.46
307.417	16.46
307.55	27.46
307.683	-2.54
307.816	0.46
307.948	11.46
308.081	4.46
308.214	20.46
308.347	10.46
308.48	9.46
308.613	-15.54
308.745	15.46
308.878	2.46
309.011	20.46
309.144	4.46
309.277	7.46
309.409	26.46
309.542	-2.54
309.675	7.46
309.808	8.46
309.94	23.46
310.073	-7.54
310.206	4.46
310.339	2.46
310.471	4.46
310.604	12.46
310.737	-4.54
310.869	-3.54
311.002	5.46
311.135	6.46
311.267	3.46
311.4	8.46
311.533	27.46
311.665	7.46
311.798	11.46
311.93	5.46
312.063	46.46
312.196	39.46
312.328	91.46
312.461	44.46
312.593	35.46
312.726	56.46
312.859	87.46
312.991	172.46
313.124	50.46
313.256	19.46
313.389	11.46
313.521	12.46
313.654	-0.54
313.786	-4.54
313.919	7.46
314.051	-12.54
314.184	5.46
314.316	10.46
314.449	-16.54
314.581	1.46
314.714	-23.54
314.846	2.46
314.978	22.46
315.111	-0.54
315.243	2.46
315.376	19.46
315.508	20.46
315.641	1.46
315.773	9.46
315.905	7.46
316.038	11.46
316.17	-0.54
316.302	8.46
316.435	6.46
316.567	-8.54
316.699	33.46
316.832	-12.54
316.964	-3.54
317.096	3.46
317.229	-13.54
317.361	-19.54
317.493	1.46
317.625	9.46
317.758	22.46
317.89	13.46
318.022	-2.54
318.155	-3.54
318.287	0.46
318.419	2.46
318.551	10.46
318.683	10.46
318.816	-2.54
318.948	12.46
319.08	10.46
319.212	9.46
319.344	8.46
319.477	4.46
319.609	8.46
319.741	29.46
319.873	7.46
320.005	5.46
320.137	3.46
320.269	-5.54
320.401	-2.54
320.534	-6.54
320.666	1.46
320.798	7.46
320.93	2.46
321.062	4.46
321.194	6.46
321.326	12.46
321.458	10.46
321.59	11.46
321.722	-4.54
321.854	5.46
321.986	8.46
322.118	10.46
322.25	8.46
322.382	11.46
322.514	-15.54
322.646	-8.54
322.778	6.46
322.91	-13.54
323.042	4.46
323.174	9.46
323.306	-20.54
323.438	-10.54
323.57	8.46
323.702	9.46
323.834	1.46
323.966	-5.54
324.097	1.46
324.229	14.46
324.361	7.46
324.493	-0.54
324.625	8.46
324.757	15.46
324.889	0.46
325.021	2.46
325.152	17.46
325.284	33.46
325.416	-11.54
325.548	32.46
325.68	7.46
325.811	31.46
325.943	16.46
326.075	-12.54
326.207	21.46
326.339	41.46
326.47	16.46
326.602	20.46
326.734	19.46
326.866	17.46
326.997	1.46
327.129	8.46
327.261	-10.54
327.392	-8.54
327.524	11.46
327.656	-1.54
327.787	1.46
327.919	18.46
328.051	22.46
328.182	23.46
328.314	21.46
328.446	19.46
328.577	21.46
328.709	-0.54
328.841	-21.54
328.972	-22.54
329.104	-4.54
329.235	14.46
329.367	6.46
329.499	19.46
329.63	25.46
329.762	11.46
329.893	12.46
330.025	8.46
330.156	1.46
330.288	-1.54
330.419	35.46
330.551	15.46
330.683	8.46
330.814	9.46
330.946	7.46
331.077	-4.54
331.208	5.46
331.34	-4.54
331.471	-3.54
331.603	10.46
331.734	2.46
331.866	5.46
331.997	7.46
332.129	12.46
332.26	21.46
332.392	29.46
332.523	8.46
332.654	-16.54
332.786	-3.54
332.917	-5.54
333.048	24.46
333.18	18.46
333.311	-11.54
333.443	3.46
333.574	7.46
333.705	45.46
333.837	41.46
333.968	122.46
334.099	223.46
334.231	213.46
334.362	75.46
334.493	36.46
334.624	27.46
334.756	-0.54
334.887	30.46
335.018	3.46
335.15	5.46
335.281	18.46
335.412	11.46
335.543	19.46
335.675	10.46
335.806	1.46
335.937	9.46
336.068	16.46
336.199	35.46
336.331	4.46
336.462	10.46
336.593	28.46
336.724	23.46
336.855	22.46
336.986	13.46
337.118	21.46
337.249	9.46
337.38	2.46
337.511	4.46
337.642	32.46
337.773	18.46
337.904	-0.54
338.035	4.46
338.166	16.46
338.298	25.46
338.429	2.46
338.56	17.46
338.691	13.46
338.822	8.46
338.953	30.46
339.084	27.46
339.215	18.46
339.346	18.46
339.477	12.46
339.608	15.46
339.739	5.46
339.87	2.46
340.001	15.46
340.132	35.46
340.263	9.46
340.394	21.46
340.525	11.46
340.656	-3.54
340.787	0.46
340.918	37.46
341.049	7.46
341.179	32.46
341.31	23.46
341.441	19.46
341.572	25.46
341.703	22.46
341.834	14.46
341.965	39.46
342.096	11.46
342.227	15.46
342.357	5.46
342.488	20.46
342.619	19.46
342.75	21.46
342.881	-10.54
343.012	41.46
343.142	36.46
343.273	8.46
343.404	19.46
343.535	51.46
343.666	37.46
343.796	27.46
343.927	16.46
344.058	37.46
344.189	14.46
344.319	36.46
344.45	29.46
344.581	25.46
344.712	7.46
344.842	26.46
344.973	12.46
345.104	25.46
345.234	6.46
345.365	1.46
345.496	9.46
345.626	32.46
345.757	36.46
345.888	19.46
346.018	50.46
346.149	30.46
346.28	38.46
346.41	30.46
346.541	31.46
346.672	15.46
346.802	34.46
346.933	39.46
347.063	25.46
347.194	22.46
347.325	27.46
347.455	26.46
347.586	39.46
347.716	22.46
347.847	44.46
347.977	33.46
348.108	58.46
348.238	55.46
348.369	31.46
348.499	34.46
348.63	45.46
348.76	31.46
348.891	47.46
349.021	59.46
349.152	62.46
349.282	42.46
349.413	28.46
349.543	57.46
349.674	34.46
349.804	53.46
349.935	39.46
350.065	35.46
350.196	24.46
350.326	17.46
350.456	20.46
350.587	35.46
350.717	-1.54
350.848	19.46
350.978	27.46
351.108	1.46
351.239	40.46
351.369	10.46
351.499	11.46
351.63	36.46
351.76	29.46
351.89	15.46
352.021	20.46
352.151	18.46
352.281	19.46
352.412	39.46
352.542	44.46
352.672	27.46
352.803	26.46
352.933	30.46
353.063	18.46
353.193	19.46
353.324	16.46
353.454	25.46
353.584	49.46
353.714	14.46
353.845	18.46
353.975	17.46
354.105	26.46
354.235	12.46
354.365	35.46
354.496	20.46
354.626	37.46
354.756	32.46
354.886	24.46
355.016	39.46
355.146	26.46
355.277	25.46
355.407	18.46
355.537	19.46
355.667	42.46
355.797	26.46
355.927	31.46
356.057	27.46
356.187	10.46
356.318	26.46
356.448	19.46
356.578	30.46
356.708	26.46
356.838	22.46
356.968	20.46
357.098	27.46
357.228	20.46
357.358	33.46
357.488	21.46
357.618	57.46
357.748	52.46
357.878	24.46
358.008	15.46
358.138	15.46
358.268	4.46
358.398	33.46
358.528	12.46
358.658	28.46
358.788	20.46
358.918	29.46
359.048	20.46
359.178	34.46
359.308	37.46
359.438	40.46
359.568	41.46
359.698	42.46
359.827	33.46
359.957	21.46
360.087	22.46
360.217	28.46
360.347	44.46
360.477	45.46
360.607	9.46
360.737	42.46
360.866	20.46
360.996	17.46
361.126	29.46
361.256	59.46
361.386	43.46
361.516	59.46
361.645	16.46
361.775	41.46
361.905	10.46
362.035	49.46
362.165	32.46
362.294	58.46
362.424	40.46
362.554	53.46
362.684	42.46
362.813	48.46
362.943	82.46
363.073	54.46
363.203	63.46
363.332	70.46
363.462	99.46
363.592	120.46
363.721	144.46
363.851	173.46
363.981	200.46
364.111	255.46
364.24	308.46
364.37	500.46
364.5	860.46
364.629	1826.46
364.759	3900.46
364.888	6373.46
365.018	9483.46
365.148	14852.46
365.277	13019.46
365.407	4798.46
365.537	3110.46
365.666	4090.46
365.796	1858.46
365.925	809.46
366.055	762.46
366.184	1035.46
366.314	1412.46
366.444	2479.46
366.573	2136.46
366.703	634.46
366.832	215.46
366.962	120.46
367.091	92.46
367.221	61.46
367.35	60.46
367.48	88.46
367.609	50.46
367.739	66.46
367.868	25.46
367.998	42.46
368.127	45.46
368.257	54.46
368.386	57.46
368.516	44.46
368.645	55.46
368.775	58.46
368.904	37.46
369.033	18.46
369.163	15.46
369.292	41.46
369.422	25.46
369.551	45.46
369.68	41.46
369.81	49.46
369.939	42.46
370.069	65.46
370.198	51.46
370.327	20.46
370.457	39.46
370.586	58.46
370.715	38.46
370.845	30.46
370.974	43.46
371.103	44.46
371.233	53.46
371.362	66.46
371.491	33.46
371.621	44.46
371.75	60.46
371.879	27.46
372.008	38.46
372.138	63.46
372.267	70.46
372.396	49.46
372.525	24.46
372.655	42.46
372.784	35.46
372.913	27.46
373.042	29.46
373.172	35.46
373.301	-1.54
373.43	2.46
373.559	21.46
373.688	37.46
373.818	38.46
373.947	37.46
374.076	37.46
374.205	31.46
374.334	40.46
374.463	9.46
374.593	32.46
374.722	34.46
374.851	28.46
374.98	20.46
375.109	14.46
375.238	14.46
375.367	39.46
375.496	12.46
375.625	1.46
375.755	21.46
375.884	39.46
376.013	30.46
376.142	14.46
376.271	28.46
376.4	11.46
376.529	27.46
376.658	41.46
376.787	26.46
376.916	12.46
377.045	33.46
377.174	18.46
377.303	34.46
377.432	51.46
377.561	31.46
377.69	27.46
377.819	35.46
377.948	17.46
378.077	-0.54
378.206	4.46
378.335	3.46
378.464	10.46
378.593	12.46
378.722	0.46
378.851	22.46
378.98	35.46
379.108	22.46
379.237	10.46
379.366	-2.54
379.495	27.46
379.624	44.46
379.753	24.46
379.882	22.46
380.011	25.46
380.14	25.46
380.268	7.46
380.397	22.46
380.526	9.46
380.655	0.46
380.784	15.46
380.913	15.46
381.041	1.46
381.17	4.46
381.299	11.46
381.428	31.46
381.557	30.46
381.685	7.46
381.814	26.46
381.943	18.46
382.072	11.46
382.2	-1.54
382.329	6.46
382.458	35.46
382.587	41.46
382.715	32.46
382.844	38.46
382.973	35.46
383.102	12.46
383.23	3.46
383.359	4.46
383.488	34.46
383.616	12.46
383.745	14.46
383.874	25.46
384.003	23.46
384.131	14.46
384.26	11.46
384.389	44.46
384.517	16.46
384.646	2.46
384.774	23.46
384.903	37.46
385.032	45.46
385.16	29.46
385.289	23.46
385.418	22.46
385.546	26.46
385.675	31.46
385.803	16.46
385.932	23.46
386.06	17.46
386.189	35.46
386.318	21.46
386.446	3.46
386.575	42.46
386.703	36.46
386.832	40.46
386.96	23.46
387.089	52.46
387.217	18.46
387.346	-4.54
387.474	15.46
387.603	36.46
387.731	27.46
387.86	31.46
387.988	30.46
388.117	34.46
388.245	25.46
388.374	7.46
388.502	39.46
388.631	4.46
388.759	29.46
388.888	26.46
389.016	20.46
389.144	22.46
389.273	19.46
389.401	14.46
389.53	7.46
389.658	23.46
389.786	19.46
389.915	9.46
390.043	19.46
390.172	29.46
390.3	41.46
390.428	63.46
390.557	39.46
390.685	33.46
390.813	40.46
390.942	51.46
391.07	23.46
391.198	11.46
391.327	1.46
391.455	10.46
391.583	26.46
391.712	40.46
391.84	26.46
391.968	22.46
392.096	19.46
392.225	19.46
392.353	43.46
392.481	27.46
392.609	37.46
392.738	18.46
392.866	33.46
392.994	15.46
393.122	30.46
393.251	40.46
393.379	-1.54
393.507	3.46
393.635	25.46
393.764	28.46
393.892	29.46
394.02	19.46
394.148	11.46
394.276	31.46
394.404	39.46
394.533	28.46
394.661	37.46
394.789	46.46
394.917	52.46
395.045	36.46
395.173	20.46
395.302	33.46
395.43	28.46
395.558	31.46
395.686	49.46
395.814	29.46
395.942	33.46
396.07	42.46
396.198	22.46
396.326	49.46
396.454	61.46
396.582	47.46
396.711	25.46
396.839	36.46
396.967	35.46
397.095	22.46
397.223	31.46
397.351	41.46
397.479	26.46
397.607	18.46
397.735	43.46
397.863	64.46
397.991	42.46
398.119	23.46
398.247	25.46
398.375	50.46
398.503	48.46
398.631	44.46
398.759	72.46
398.887	50.46
399.015	59.46
399.143	61.46
399.271	72.46
399.399	68.46
399.526	77.46
399.654	86.46
399.782	77.46
399.91	111.46
400.038	91.46
400.166	66.46
400.294	81.46
400.422	88.46
400.55	106.46
400.678	89.46
400.805	136.46
400.933	121.46
401.061	133.46
401.189	107.46
401.317	144.46
401.445	106.46
401.573	84.46
401.7	65.46
401.828	53.46
401.956	48.46
402.084	42.46
402.212	51.46
402.34	42.46
402.467	44.46
402.595	38.46
402.723	52.46
402.851	75.46
402.978	59.46
403.106	98.46
403.234	83.46
403.362	128.46
403.489	142.46
403.617	144.46
403.745	202.46
403.873	282.46
404	574.46
404.128	1486.46
404.256	3940.46
404.384	5165.46
404.511	5511.46
404.639	7323.46
404.767	11500.46
404.894	14664.46
405.022	4953.46
405.15	1294.46
405.277	418.46
405.405	246.46
405.533	118.46
405.66	124.46
405.788	62.46
405.916	70.46
406.043	44.46
406.171	59.46
406.299	63.46
406.426	76.46
406.554	58.46
406.681	72.46
406.809	48.46
406.937	61.46
407.064	65.46
407.192	138.46
407.319	307.46
407.447	521.46
407.574	535.46
407.702	631.46
407.83	872.46
407.957	1584.46
408.085	934.46
408.212	276.46
408.34	103.46
408.467	56.46
408.595	50.46
408.722	55.46
408.85	48.46
408.977	32.46
409.105	32.46
409.232	34.46
409.36	18.46
409.487	41.46
409.615	40.46
409.742	44.46
409.87	30.46
409.997	45.46
410.125	34.46
410.252	55.46
410.379	30.46
410.507	51.46
410.634	23.46
410.762	24.46
410.889	35.46
411.017	26.46
411.144	45.46
411.271	26.46
411.399	39.46
411.526	36.46
411.653	48.46
411.781	38.46
411.908	37.46
412.036	23.46
412.163	23.46
412.29	22.46
412.418	28.46
412.545	22.46
412.672	19.46
412.8	48.46
412.927	47.46
413.054	53.46
413.182	55.46
413.309	27.46
413.436	15.46
413.564	23.46
413.691	37.46
413.818	47.46
413.945	12.46
414.073	23.46
414.2	25.46
414.327	27.46
414.454	39.46
414.582	25.46
414.709	11.46
414.836	16.46
414.963	24.46
415.091	35.46
415.218	30.46
415.345	10.46
415.472	18.46
415.6	19.46
415.727	40.46
415.854	33.46
415.981	27.46
416.108	43.46
416.236	16.46
416.363	48.46
416.49	24.46
416.617	40.46
416.744	38.46
416.871	44.46
416.998	32.46
417.126	27.46
417.253	32.46
417.38	34.46
417.507	35.46
417.634	28.46
417.761	40.46
417.888	48.46
418.015	35.46
418.143	29.46
418.27	50.46
418.397	25.46
418.524	41.46
418.651	28.46
418.778	46.46
418.905	64.46
419.032	42.46
419.159	48.46
419.286	67.46
419.413	32.46
419.54	52.46
419.667	30.46
419.794	33.46
419.921	50.46
420.048	50.46
420.175	49.46
420.302	47.46
420.429	52.46
420.556	42.46
420.683	47.46
420.81	59.46
420.937	58.46
421.064	56.46
421.191	55.46
421.318	64.46
421.445	78.46
421.572	56.46
421.699	49.46
421.826	43.46
421.953	30.46
422.08	27.46
422.207	19.46
422.334	15.46
422.461	36.46
422.588	20.46
422.714	24.46
422.841	53.46
422.968	25.46
423.095	5.46
423.222	13.46
423.349	21.46
423.476	19.46
423.603	14.46
423.729	21.46
423.856	20.46
423.983	8.46
424.11	11.46
424.237	22.46
424.364	27.46
424.491	14.46
424.617	13.46
424.744	33.46
424.871	35.46
424.998	20.46
425.125	14.46
425.251	12.46
425.378	13.46
425.505	28.46
425.632	18.46
425.758	12.46
425.885	18.46
426.012	31.46
426.139	41.46
426.266	11.46
426.392	26.46
426.519	33.46
426.646	13.46
426.772	39.46
426.899	29.46
427.026	19.46
427.153	17.46
427.279	46.46
427.406	28.46
427.533	18.46
427.659	37.46
427.786	20.46
427.913	48.46
428.039	35.46
428.166	12.46
428.293	23.46
428.419	33.46
428.546	24.46
428.673	17.46
428.799	17.46
428.926	23.46
429.053	50.46
429.179	43.46
429.306	33.46
429.433	37.46
429.559	23.46
429.686	14.46
429.812	22.46
429.939	25.46
430.066	27.46
430.192	33.46
430.319	27.46
430.445	37.46
430.572	32.46
430.699	29.46
430.825	28.46
430.952	11.46
431.078	28.46
431.205	41.46
431.331	22.46
431.458	31.46
431.584	46.46
431.711	18.46
431.837	27.46
431.964	23.46
432.09	33.46
432.217	4.46
432.343	32.46
432.47	43.46
432.596	27.46
432.723	23.46
432.849	28.46
432.976	52.46
433.102	39.46
433.229	35.46
433.355	65.46
433.482	81.46
433.608	98.46
433.735	105.46
433.861	112.46
433.987	172.46
434.114	184.46
434.24	159.46
434.367	210.46
434.493	226.46
434.62	282.46
434.746	384.46
434.872	616.46
434.999	844.46
435.125	1753.46
435.252	5543.46
435.378	13495.46
435.504	15257.46
435.631	15455.46
435.757	15685.46
435.883	15685.46
436.01	15685.46
436.136	15685.46
436.262	15685.46
436.389	3498.46
436.515	2236.46
436.641	848.46
436.768	638.46
436.894	407.46
437.02	403.46
437.147	308.46
437.273	300.46
437.399	220.46
437.526	242.46
437.652	195.46
437.778	229.46
437.904	150.46
438.031	177.46
438.157	123.46
438.283	154.46
438.409	118.46
438.536	139.46
438.662	107.46
438.788	130.46
438.914	118.46
439.041	115.46
439.167	106.46
439.293	109.46
439.419	96.46
439.546	104.46
439.672	79.46
439.798	91.46
439.924	91.46
440.05	105.46
440.177	64.46
440.303	75.46
440.429	46.46
440.555	73.46
440.681	63.46
440.807	82.46
440.934	74.46
441.06	68.46
441.186	55.46
441.312	54.46
441.438	57.46
441.564	88.46
441.69	77.46
441.816	62.46
441.943	49.46
442.069	65.46
442.195	66.46
442.321	68.46
442.447	36.46
442.573	56.46
442.699	47.46
442.825	30.46
442.951	56.46
443.077	52.46
443.203	55.46
443.33	37.46
443.456	27.46
443.582	27.46
443.708	47.46
443.834	65.46
443.96	45.46
444.086	57.46
444.212	70.46
444.338	76.46
444.464	62.46
444.59	65.46
444.716	43.46
444.842	42.46
444.968	34.46
445.094	38.46
445.22	30.46
445.346	37.46
445.472	37.46
445.598	34.46
445.724	42.46
445.85	54.46
445.976	39.46
446.102	44.46
446.228	50.46
446.354	48.46
446.48	34.46
446.605	35.46
446.731	33.46
446.857	23.46
446.983	43.46
447.109	49.46
447.235	61.46
447.361	45.46
447.487	35.46
447.613	34.46
447.739	29.46
447.865	34.46
447.99	47.46
448.116	47.46
448.242	39.46
448.368	26.46
448.494	21.46
448.62	47.46
448.746	35.46
448.872	38.46
448.997	33.46
449.123	26.46
449.249	27.46
449.375	40.46
449.501	17.46
449.627	18.46
449.752	45.46
449.878	38.46
450.004	35.46
450.13	40.46
450.256	21.46
450.381	2.46
450.507	34.46
450.633	24.46
450.759	26.46
450.884	27.46
451.01	39.46
451.136	27.46
451.262	50.46
451.388	41.46
451.513	29.46
451.639	31.46
451.765	52.46
451.89	49.46
452.016	45.46
452.142	13.46
452.268	32.46
452.393	43.46
452.519	17.46
452.645	29.46
452.771	36.46
452.896	24.46
453.022	23.46
453.148	53.46
453.273	29.46
453.399	43.46
453.525	29.46
453.65	32.46
453.776	39.46
453.902	44.46
454.027	48.46
454.153	31.46
454.279	45.46
454.404	39.46
454.53	47.46
454.656	45.46
454.781	24.46
454.907	28.46
455.032	17.46
455.158	55.46
455.284	39.46
455.409	12.46
455.535	41.46
455.66	40.46
455.786	36.46
455.912	30.46
456.037	31.46
456.163	30.46
456.288	42.46
456.414	21.46
456.539	18.46
456.665	34.46
456.791	36.46
456.916	29.46
457.042	30.46
457.167	15.46
457.293	39.46
457.418	29.46
457.544	14.46
457.669	57.46
457.795	22.46
457.92	28.46
458.046	18.46
458.171	33.46
458.297	19.46
458.422	4.46
458.548	33.46
458.673	41.46
458.799	46.46
458.924	19.46
459.05	29.46
459.175	11.46
459.301	26.46
459.426	26.46
459.552	30.46
459.677	27.46
459.803	45.46
459.928	39.46
460.053	39.46
460.179	37.46
460.304	36.46
460.43	12.46
460.555	8.46
460.681	32.46
460.806	40.46
460.931	36.46
461.057	41.46
461.182	22.46
461.308	30.46
461.433	32.46
461.558	22.46
461.684	33.46
461.809	39.46
461.934	23.46
462.06	40.46
462.185	20.46
462.311	33.46
462.436	51.46
462.561	46.46
462.687	35.46
462.812	21.46
462.937	16.46
463.063	19.46
463.188	16.46
463.313	31.46
463.439	21.46
463.564	32.46
463.689	16.46
463.814	31.46
463.94	25.46
464.065	40.46
464.19	50.46
464.316	8.46
464.441	2.46
464.566	26.46
464.692	16.46
464.817	30.46
464.942	26.46
465.067	26.46
465.193	1.46
465.318	30.46
465.443	19.46
465.568	29.46
465.694	44.46
465.819	50.46
465.944	29.46
466.069	27.46
466.194	44.46
466.32	39.46
466.445	35.46
466.57	26.46
466.695	44.46
466.82	45.46
466.946	48.46
467.071	20.46
467.196	35.46
467.321	60.46
467.446	49.46
467.572	45.46
467.697	29.46
467.822	50.46
467.947	50.46
468.072	32.46
468.197	38.46
468.323	40.46
468.448	24.46
468.573	31.46
468.698	34.46
468.823	30.46
468.948	48.46
469.073	48.46
469.198	53.46
469.324	49.46
469.449	51.46
469.574	43.46
469.699	56.46
469.824	37.46
469.949	19.46
470.074	55.46
470.199	52.46
470.324	39.46
470.449	32.46
470.574	27.46
470.7	36.46
470.825	51.46
470.95	51.46
471.075	24.46
471.2	38.46
471.325	51.46
471.45	24.46
471.575	22.46
471.7	28.46
471.825	29.46
471.95	43.46
472.075	21.46
472.2	26.46
472.325	39.46
472.45	32.46
472.575	28.46
472.7	24.46
472.825	32.46
472.95	55.46
473.075	46.46
473.2	40.46
473.325	45.46
473.45	42.46
473.575	51.46
473.7	38.46
473.825	41.46
473.95	30.46
474.075	34.46
474.2	18.46
474.325	25.46
474.45	44.46
474.574	19.46
474.699	25.46
474.824	35.46
474.949	17.46
475.074	26.46
475.199	36.46
475.324	43.46
475.449	14.46
475.574	18.46
475.699	40.46
475.824	18.46
475.949	15.46
476.073	14.46
476.198	-4.54
476.323	24.46
476.448	20.46
476.573	3.46
476.698	22.46
476.823	29.46
476.947	22.46
477.072	13.46
477.197	16.46
477.322	15.46
477.447	17.46
477.572	21.46
477.697	17.46
477.821	25.46
477.946	36.46
478.071	34.46
478.196	39.46
478.321	23.46
478.445	12.46
478.57	15.46
478.695	6.46
478.82	30.46
478.945	35.46
479.069	16.46
479.194	36.46
479.319	43.46
479.444	32.46
479.569	19.46
479.693	40.46
479.818	30.46
479.943	38.46
480.068	24.46
480.192	33.46
480.317	22.46
480.442	39.46
480.567	22.46
480.691	16.46
480.816	20.46
480.941	16.46
481.066	32.46
481.19	33.46
481.315	37.46
481.44	17.46
481.564	3.46
481.689	39.46
481.814	39.46
481.938	36.46
482.063	7.46
482.188	28.46
482.313	39.46
482.437	4.46
482.562	24.46
482.687	19.46
482.811	36.46
482.936	20.46
483.061	11.46
483.185	-0.54
483.31	27.46
483.435	11.46
483.559	18.46
483.684	33.46
483.808	57.46
483.933	31.46
484.058	8.46
484.182	28.46
484.307	27.46
484.432	20.46
484.556	21.46
484.681	21.46
484.805	24.46
484.93	32.46
485.055	30.46
485.179	63.46
485.304	30.46
485.428	27.46
485.553	13.46
485.678	36.46
485.802	29.46
485.927	36.46
486.051	36.46
486.176	24.46
486.3	16.46
486.425	35.46
486.549	29.46
486.674	43.46
486.799	7.46
486.923	14.46
487.048	11.46
487.172	7.46
487.297	18.46
487.421	43.46
487.546	13.46
487.67	49.46
487.795	22.46
487.919	15.46
488.044	40.46
488.168	45.46
488.293	20.46
488.417	18.46
488.542	36.46
488.666	43.46
488.791	35.46
488.915	30.46
489.04	25.46
489.164	29.46
489.289	14.46
489.413	24.46
489.538	24.46
489.662	33.46
489.786	6.46
489.911	24.46
490.035	26.46
490.16	26.46
490.284	20.46
490.409	2.46
490.533	31.46
490.658	60.46
490.782	43.46
490.906	64.46
491.031	118.46
491.155	146.46
491.28	146.46
491.404	160.46
491.528	244.46
491.653	161.46
491.777	86.46
491.902	35.46
492.026	38.46
492.15	20.46
492.275	49.46
492.399	34.46
492.524	22.46
492.648	27.46
492.772	26.46
492.897	24.46
493.021	7.46
493.145	32.46
493.27	36.46
493.394	26.46
493.518	19.46
493.643	27.46
493.767	43.46
493.891	8.46
494.016	32.46
494.14	23.46
494.264	21.46
494.389	27.46
494.513	19.46
494.637	10.46
494.762	29.46
494.886	19.46
495.01	19.46
495.134	20.46
495.259	23.46
495.383	40.46
495.507	30.46
495.632	36.46
495.756	53.46
495.88	29.46
496.004	44.46
496.129	23.46
496.253	28.46
496.377	15.46
496.501	47.46
496.626	17.46
496.75	19.46
496.874	34.46
496.998	11.46
497.123	30.46
497.247	29.46
497.371	30.46
497.495	20.46
497.62	16.46
497.744	30.46
497.868	24.46
497.992	23.46
498.116	23.46
498.241	23.46
498.365	13.46
498.489	17.46
498.613	49.46
498.737	13.46
498.862	19.46
498.986	6.46
499.11	14.46
499.234	15.46
499.358	16.46
499.482	17.46
499.607	36.46
499.731	11.46
499.855	28.46
499.979	22.46
500.103	19.46
500.227	39.46
500.351	33.46
500.476	36.46
500.6	14.46
500.724	25.46
500.848	15.46
500.972	13.46
501.096	25.46
501.22	44.46
501.344	23.46
501.469	18.46
501.593	17.46
501.717	36.46
501.841	29.46
501.965	11.46
502.089	17.46
502.213	31.46
502.337	23.46
502.461	11.46
502.585	20.46
502.709	40.46
502.834	45.46
502.958	21.46
503.082	12.46
503.206	32.46
503.33	36.46
503.454	34.46
503.578	37.46
503.702	29.46
503.826	24.46
503.95	30.46
504.074	12.46
504.198	6.46
504.322	9.46
504.446	18.46
504.57	24.46
504.694	28.46
504.818	16.46
504.942	42.46
505.066	40.46
505.19	26.46
505.314	30.46
505.438	33.46
505.562	20.46
505.686	37.46
505.81	30.46
505.934	18.46
506.058	12.46
506.182	43.46
506.306	38.46
506.43	17.46
506.554	42.46
506.678	6.46
506.802	21.46
506.926	45.46
507.05	41.46
507.174	25.46
507.298	22.46
507.422	32.46
507.546	27.46
507.67	46.46
507.794	27.46
507.918	14.46
508.042	19.46
508.165	19.46
508.289	21.46
508.413	27.46
508.537	22.46
508.661	34.46
508.785	32.46
508.909	18.46
509.033	42.46
509.157	21.46
509.281	36.46
509.405	31.46
509.528	54.46
509.652	47.46
509.776	28.46
509.9	54.46
510.024	50.46
510.148	55.46
510.272	43.46
510.396	25.46
510.519	30.46
510.643	46.46
510.767	42.46
510.891	49.46
511.015	40.46
511.139	52.46
511.263	71.46
511.386	47.46
511.51	58.46
511.634	64.46
511.758	58.46
511.882	34.46
512.006	53.46
512.129	73.46
512.253	96.46
512.377	87.46
512.501	78.46
512.625	92.46
512.748	87.46
512.872	84.46
512.996	46.46
513.12	57.46
513.244	51.46
513.367	69.46
513.491	49.46
513.615	76.46
513.739	80.46
513.862	81.46
513.986	82.46
514.11	106.46
514.234	94.46
514.358	112.46
514.481	119.46
514.605	125.46
514.729	123.46
514.853	118.46
514.976	108.46
515.1	116.46
515.224	125.46
515.348	100.46
515.471	82.46
515.595	107.46
515.719	124.46
515.842	226.46
515.966	295.46
516.09	309.46
516.214	315.46
516.337	380.46
516.461	249.46
516.585	98.46
516.708	52.46
516.832	58.46
516.956	35.46
517.08	15.46
517.203	17.46
517.327	14.46
517.451	42.46
517.574	50.46
517.698	13.46
517.822	26.46
517.945	35.46
518.069	15.46
518.193	42.46
518.316	32.46
518.44	26.46
518.564	21.46
518.687	12.46
518.811	17.46
518.935	60.46
519.058	15.46
519.182	24.46
519.306	22.46
519.429	28.46
519.553	47.46
519.676	30.46
519.8	11.46
519.924	13.46
520.047	28.46
520.171	6.46
520.294	14.46
520.418	35.46
520.542	22.46
520.665	30.46
520.789	14.46
520.913	-19.54
521.036	12.46
521.16	16.46
521.283	17.46
521.407	8.46
521.53	3.46
521.654	-5.54
521.778	37.46
521.901	29.46
522.025	15.46
522.148	6.46
522.272	23.46
522.395	23.46
522.519	32.46
522.643	15.46
522.766	15.46
522.89	14.46
523.013	27.46
523.137	7.46
523.26	11.46
523.384	25.46
523.507	27.46
523.631	18.46
523.754	10.46
523.878	15.46
524.002	34.46
524.125	17.46
524.249	0.46
524.372	32.46
524.496	18.46
524.619	33.46
524.743	18.46
524.866	33.46
524.99	27.46
525.113	8.46
525.237	26.46
525.36	26.46
525.484	31.46
525.607	17.46
525.731	-11.54
525.854	17.46
525.978	31.46
526.101	11.46
526.224	15.46
526.348	40.46
526.471	27.46
526.595	15.46
526.718	10.46
526.842	-4.54
526.965	14.46
527.089	22.46
527.212	16.46
527.336	-3.54
527.459	20.46
527.582	25.46
527.706	9.46
527.829	15.46
527.953	33.46
528.076	11.46
528.2	5.46
528.323	13.46
528.446	42.46
528.57	7.46
528.693	16.46
528.817	32.46
528.94	16.46
529.064	43.46
529.187	1.46
529.31	15.46
529.434	18.46
529.557	-1.54
529.68	11.46
529.804	19.46
529.927	16.46
530.051	11.46
530.174	14.46
530.297	10.46
530.421	23.46
530.544	30.46
530.668	27.46
530.791	2.46
530.914	29.46
531.038	28.46
531.161	5.46
531.284	23.46
531.408	8.46
531.531	16.46
531.654	6.46
531.778	21.46
531.901	22.46
532.024	34.46
532.148	16.46
532.271	9.46
532.394	15.46
532.518	24.46
532.641	28.46
532.764	27.46
532.888	15.46
533.011	10.46
533.134	14.46
533.258	24.46
533.381	12.46
533.504	10.46
533.628	15.46
533.751	23.46
533.874	28.46
533.997	16.46
534.121	19.46
534.244	20.46
534.367	14.46
534.491	26.46
534.614	28.46
534.737	17.46
534.86	27.46
534.984	23.46
535.107	25.46
535.23	22.46
535.354	16.46
535.477	12.46
535.6	33.46
535.723	15.46
535.847	30.46
535.97	16.46
536.093	27.46
536.216	14.46
536.34	15.46
536.463	11.46
536.586	30.46
536.709	33.46
536.833	16.46
536.956	13.46
537.079	17.46
537.202	30.46
537.325	11.46
537.449	-5.54
537.572	29.46
537.695	0.46
537.818	6.46
537.941	15.46
538.065	28.46
538.188	22.46
538.311	35.46
538.434	25.46
538.558	23.46
538.681	29.46
538.804	18.46
538.927	31.46
539.05	34.46
539.173	26.46
539.297	32.46
539.42	19.46
539.543	16.46
539.666	23.46
539.789	20.46
539.913	23.46
540.036	17.46
540.159	24.46
540.282	10.46
540.405	9.46
540.528	22.46
540.651	33.46
540.775	23.46
540.898	36.46
541.021	16.46
541.144	27.46
541.267	42.46
541.39	28.46
541.513	20.46
541.637	33.46
541.76	16.46
541.883	12.46
542.006	36.46
542.129	46.46
542.252	24.46
542.375	47.46
542.498	46.46
542.622	57.46
542.745	55.46
542.868	39.46
542.991	44.46
543.114	37.46
543.237	50.46
543.36	75.46
543.483	43.46
543.606	68.46
543.73	92.46
543.853	70.46
543.976	90.46
544.099	107.46
544.222	93.46
544.345	135.46
544.468	175.46
544.591	204.46
544.714	271.46
544.837	340.46
544.96	431.46
545.083	645.46
545.206	1134.46
545.329	2425.46
545.453	11036.46
545.576	15274.46
545.699	15685.46
545.822	15685.46
545.945	15685.46
546.068	15685.46
546.191	15685.46
546.314	15685.46
546.437	15685.46
546.56	15685.46
546.683	15685.46
546.806	15685.46
546.929	15685.46
547.052	15685.46
547.175	15685.46
547.298	15685.46
547.421	15685.46
547.544	15685.46
547.667	3710.46
547.79	3626.46
547.913	1196.46
548.036	921.46
548.159	643.46
548.282	664.46
548.405	514.46
548.528	525.46
548.651	408.46
548.774	412.46
548.897	357.46
549.02	364.46
549.143	308.46
549.266	306.46
549.389	273.46
549.512	264.46
549.635	274.46
549.758	257.46
549.881	230.46
550.004	223.46
550.127	195.46
550.25	195.46
550.373	163.46
550.496	177.46
550.619	171.46
550.742	145.46
550.865	154.46
550.988	170.46
551.111	160.46
551.234	167.46
551.356	128.46
551.479	124.46
551.602	130.46
551.725	146.46
551.848	124.46
551.971	123.46
552.094	123.46
552.217	116.46
552.34	109.46
552.463	96.46
552.586	107.46
552.709	114.46
552.832	105.46
552.955	113.46
553.077	113.46
553.2	113.46
553.323	96.46
553.446	108.46
553.569	115.46
553.692	106.46
553.815	96.46
553.938	98.46
554.061	113.46
554.184	98.46
554.306	83.46
554.429	81.46
554.552	88.46
554.675	87.46
554.798	84.46
554.921	81.46
555.044	73.46
555.167	86.46
555.29	83.46
555.412	69.46
555.535	75.46
555.658	70.46
555.781	70.46
555.904	67.46
556.027	82.46
556.15	64.46
556.272	69.46
556.395	94.46
556.518	63.46
556.641	79.46
556.764	104.46
556.887	84.46
557.01	66.46
557.132	62.46
557.255	62.46
557.378	85.46
557.501	66.46
557.624	77.46
557.747	80.46
557.869	81.46
557.992	104.46
558.115	106.46
558.238	84.46
558.361	104.46
558.483	108.46
558.606	73.46
558.729	61.46
558.852	81.46
558.975	75.46
559.098	56.46
559.22	49.46
559.343	61.46
559.466	55.46
559.589	52.46
559.712	62.46
559.834	77.46
559.957	63.46
560.08	57.46
560.203	78.46
560.325	78.46
560.448	64.46
560.571	46.46
560.694	38.46
560.817	79.46
560.939	52.46
561.062	42.46
561.185	78.46
561.308	57.46
561.43	62.46
561.553	58.46
561.676	71.46
561.799	59.46
561.921	72.46
562.044	50.46
562.167	50.46
562.29	75.46
562.413	67.46
562.535	66.46
562.658	45.46
562.781	45.46
562.903	65.46
563.026	98.46
563.149	144.46
563.272	101.46
563.394	99.46
563.517	105.46
563.64	66.46
563.763	44.46
563.885	43.46
564.008	50.46
564.131	53.46
564.254	44.46
564.376	38.46
564.499	22.46
564.622	27.46
564.744	29.46
564.867	31.46
564.99	29.46
565.113	55.46
565.235	48.46
565.358	52.46
565.481	26.46
565.603	30.46
565.726	42.46
565.849	55.46
565.971	41.46
566.094	26.46
566.217	34.46
566.34	57.46
566.462	41.46
566.585	23.46
566.708	46.46
566.83	22.46
566.953	44.46
567.076	38.46
567.198	43.46
567.321	32.46
567.444	46.46
567.566	44.46
567.689	32.46
567.812	38.46
567.934	53.46
568.057	37.46
568.18	49.46
568.302	39.46
568.425	30.46
568.548	31.46
568.67	64.46
568.793	32.46
568.916	31.46
569.038	14.46
569.161	41.46
569.283	44.46
569.406	23.46
569.529	24.46
569.651	14.46
569.774	10.46
569.897	38.46
570.019	56.46
570.142	45.46
570.265	33.46
570.387	35.46
570.51	60.46
570.632	46.46
570.755	32.46
570.878	35.46
571	43.46
571.123	29.46
571.246	29.46
571.368	26.46
571.491	40.46
571.613	34.46
571.736	17.46
571.859	42.46
571.981	21.46
572.104	23.46
572.226	28.46
572.349	26.46
572.472	17.46
572.594	41.46
572.717	26.46
572.839	12.46
572.962	31.46
573.085	43.46
573.207	39.46
573.33	28.46
573.452	35.46
573.575	32.46
573.697	29.46
573.82	20.46
573.943	22.46
574.065	35.46
574.188	32.46
574.31	58.46
574.433	45.46
574.555	39.46
574.678	31.46
574.801	42.46
574.923	34.46
575.046	44.46
575.168	24.46
575.291	40.46
575.413	47.46
575.536	43.46
575.659	73.46
575.781	54.46
575.904	62.46
576.026	81.46
576.149	89.46
576.271	122.46
576.394	210.46
576.516	544.46
576.639	3656.46
576.761	10216.46
576.884	8870.46
577.007	8790.46
577.129	8003.46
577.252	3704.46
577.374	1303.46
577.497	531.46
577.619	288.46
577.742	181.46
577.864	155.46
577.987	132.46
578.109	148.46
578.232	134.46
578.354	159.46
578.477	196.46
578.599	375.46
578.722	1997.46
578.844	9150.46
578.967	9900.46
579.089	8805.46
579.212	9133.46
579.334	5289.46
579.457	1921.46
579.579	715.46
579.702	319.46
579.824	207.46
579.947	140.46
580.069	102.46
580.192	88.46
580.314	90.46
580.437	73.46
580.559	97.46
580.682	71.46
580.804	76.46
580.927	72.46
581.049	73.46
581.172	45.46
581.294	58.46
581.417	46.46
581.539	56.46
581.662	57.46
581.784	55.46
581.907	56.46
582.029	53.46
582.152	33.46
582.274	54.46
582.396	41.46
582.519	44.46
582.641	46.46
582.764	46.46
582.886	40.46
583.009	28.46
583.131	42.46
583.254	37.46
583.376	60.46
583.499	43.46
583.621	44.46
583.743	59.46
583.866	49.46
583.988	30.46
584.111	50.46
584.233	47.46
584.356	44.46
584.478	36.46
584.601	16.46
584.723	34.46
584.845	37.46
584.968	18.46
585.09	27.46
585.213	55.46
585.335	34.46
585.458	28.46
585.58	22.46
585.702	42.46
585.825	45.46
585.947	47.46
586.07	10.46
586.192	31.46
586.315	42.46
586.437	25.46
586.559	26.46
586.682	23.46
586.804	52.46
586.927	32.46
587.049	20.46
587.171	50.46
587.294	44.46
587.416	50.46
587.539	32.46
587.661	29.46
587.783	27.46
587.906	25.46
588.028	48.46
588.151	30.46
588.273	35.46
588.395	28.46
588.518	29.46
588.64	26.46
588.763	52.46
588.885	36.46
589.007	37.46
589.13	15.46
589.252	2.46
589.375	20.46
589.497	39.46
589.619	34.46
589.742	33.46
589.864	49.46
589.986	28.46
590.109	17.46
590.231	23.46
590.354	18.46
590.476	4.46
590.598	30.46
590.721	32.46
590.843	45.46
590.965	30.46
591.088	40.46
591.21	25.46
591.332	32.46
591.455	22.46
591.577	24.46
591.7	22.46
591.822	41.46
591.944	38.46
592.067	19.46
592.189	7.46
592.311	20.46
592.434	18.46
592.556	20.46
592.678	40.46
592.801	17.46
592.923	29.46
593.045	30.46
593.168	13.46
593.29	16.46
593.412	31.46
593.535	24.46
593.657	13.46
593.779	20.46
593.902	12.46
594.024	23.46
594.146	36.46
594.269	45.46
594.391	17.46
594.513	26.46
594.636	22.46
594.758	6.46
594.88	28.46
595.003	39.46
595.125	27.46
595.247	59.46
595.37	43.46
595.492	20.46
595.614	40.46
595.737	51.46
595.859	23.46
595.981	32.46
596.104	30.46
596.226	30.46
596.348	18.46
596.471	14.46
596.593	23.46
596.715	30.46
596.838	22.46
596.96	20.46
597.082	21.46
597.204	43.46
597.327	25.46
597.449	18.46
597.571	24.46
597.694	40.46
597.816	16.46
597.938	25.46
598.061	25.46
598.183	11.46
598.305	23.46
598.427	26.46
598.55	35.46
598.672	39.46
598.794	58.46
598.917	19.46
599.039	13.46
599.161	27.46
599.283	25.46
599.406	22.46
599.528	29.46
599.65	44.46
599.773	32.46
599.895	42.46
600.017	34.46
600.139	33.46
600.262	16.46
600.384	34.46
600.506	26.46
600.628	33.46
600.751	34.46
600.873	7.46
600.995	29.46
601.118	30.46
601.24	14.46
601.362	49.46
601.484	30.46
601.607	16.46
601.729	20.46
601.851	30.46
601.973	13.46
602.096	37.46
602.218	38.46
602.34	23.46
602.462	29.46
602.585	18.46
602.707	31.46
602.829	47.46
602.951	16.46
603.074	6.46
603.196	19.46
603.318	15.46
603.44	35.46
603.563	22.46
603.685	13.46
603.807	31.46
603.929	34.46
604.052	32.46
604.174	42.46
604.296	33.46
604.418	42.46
604.541	45.46
604.663	24.46
604.785	11.46
604.907	25.46
605.03	9.46
605.152	56.46
605.274	30.46
605.396	17.46
605.519	36.46
605.641	23.46
605.763	36.46
605.885	27.46
606.008	24.46
606.13	39.46
606.252	39.46
606.374	19.46
606.496	16.46
606.619	12.46
606.741	14.46
606.863	36.46
606.985	36.46
607.108	23.46
607.23	36.46
607.352	11.46
607.474	13.46
607.596	20.46
607.719	28.46
607.841	19.46
607.963	26.46
608.085	41.46
608.207	40.46
608.33	14.46
608.452	12.46
608.574	23.46
608.696	14.46
608.819	13.46
608.941	30.46
609.063	28.46
609.185	26.46
609.307	26.46
609.43	43.46
609.552	28.46
609.674	18.46
609.796	27.46
609.918	31.46
610.041	7.46
610.163	13.46
610.285	22.46
610.407	24.46
610.529	19.46
610.652	24.46
610.774	22.46
610.896	23.46
611.018	27.46
611.14	34.46
611.263	24.46
611.385	26.46
611.507	30.46
611.629	12.46
611.751	31.46
611.873	39.46
611.996	16.46
612.118	37.46
612.24	33.46
612.362	33.46
612.484	43.46
612.607	40.46
612.729	58.46
612.851	34.46
612.973	21.46
613.095	21.46
613.218	18.46
613.34	35.46
613.462	23.46
613.584	35.46
613.706	18.46
613.828	38.46
613.951	12.46
614.073	1.46
614.195	1.46
614.317	31.46
614.439	24.46
614.561	32.46
614.684	34.46
614.806	37.46
614.928	41.46
615.05	24.46
615.172	36.46
615.294	24.46
615.417	19.46
615.539	11.46
615.661	30.46
615.783	32.46
615.905	20.46
616.027	19.46
616.15	29.46
616.272	22.46
616.394	34.46
616.516	8.46
616.638	21.46
616.76	22.46
616.883	20.46
617.005	17.46
617.127	26.46
617.249	17.46
617.371	16.46
617.493	3.46
617.615	26.46
617.738	19.46
617.86	32.46
617.982	18.46
618.104	16.46
618.226	8.46
618.348	19.46
618.471	41.46
618.593	40.46
618.715	11.46
618.837	23.46
618.959	35.46
619.081	33.46
619.203	34.46
619.326	37.46
619.448	31.46
619.57	36.46
619.692	33.46
619.814	40.46
619.936	23.46
620.058	25.46
620.181	28.46
620.303	19.46
620.425	19.46
620.547	20.46
620.669	8.46
620.791	12.46
620.913	26.46
621.036	14.46
621.158	26.46
621.28	20.46
621.402	4.46
621.524	20.46
621.646	18.46
621.768	4.46
621.891	15.46
622.013	20.46
622.135	6.46
622.257	20.46
622.379	7.46
622.501	31.46
622.623	33.46
622.745	24.46
622.868	11.46
622.99	25.46
623.112	15.46
623.234	22.46
623.356	32.46
623.478	10.46
623.6	22.46
623.722	23.46
623.845	16.46
623.967	31.46
624.089	30.46
624.211	27.46
624.333	20.46
624.455	7.46
624.577	9.46
624.699	18.46
624.822	13.46
624.944	16.46
625.066	18.46
625.188	11.46
625.31	24.46
625.432	25.46
625.554	8.46
625.676	37.46
625.799	17.46
625.921	16.46
626.043	25.46
626.165	19.46
626.287	2.46
626.409	26.46
626.531	11.46
626.653	25.46
626.775	27.46
626.898	47.46
627.02	40.46
627.142	45.46
627.264	26.46
627.386	19.46
627.508	18.46
627.63	13.46
627.752	17.46
627.874	12.46
627.997	17.46
628.119	28.46
628.241	23.46
628.363	19.46
628.485	21.46
628.607	25.46
628.729	12.46
628.851	14.46
628.973	37.46
629.096	-1.54
629.218	28.46
629.34	28.46
629.462	21.46
629.584	18.46
629.706	26.46
629.828	35.46
629.95	23.46
630.072	11.46
630.195	19.46
630.317	19.46
630.439	32.46
630.561	27.46
630.683	3.46
630.805	23.46
630.927	22.46
631.049	25.46
631.171	22.46
631.293	31.46
631.416	28.46
631.538	19.46
631.66	11.46
631.782	18.46
631.904	44.46
632.026	28.46
632.148	22.46
632.27	20.46
632.392	15.46
632.514	20.46
632.637	28.46
632.759	21.46
632.881	5.46
633.003	6.46
633.125	20.46
633.247	16.46
633.369	4.46
633.491	17.46
633.613	15.46
633.735	7.46
633.858	22.46
633.98	32.46
634.102	3.46
634.224	35.46
634.346	27.46
634.468	11.46
634.59	14.46
634.712	13.46
634.834	16.46
634.956	-2.54
635.078	2.46
635.201	11.46
635.323	22.46
635.445	15.46
635.567	-1.54
635.689	21.46
635.811	20.46
635.933	16.46
636.055	14.46
636.177	7.46
636.299	4.46
636.421	-5.54
636.544	3.46
636.666	29.46
636.788	17.46
636.91	23.46
637.032	-11.54
637.154	17.46
637.276	30.46
637.398	32.46
637.52	28.46
637.642	37.46
637.764	16.46
637.887	10.46
638.009	22.46
638.131	15.46
638.253	6.46
638.375	22.46
638.497	11.46
638.619	28.46
638.741	10.46
638.863	-5.54
638.985	20.46
639.107	15.46
639.23	22.46
639.352	25.46
639.474	3.46
639.596	0.46
639.718	15.46
639.84	10.46
639.962	25.46
640.084	26.46
640.206	33.46
640.328	12.46
640.45	30.46
640.573	8.46
640.695	6.46
640.817	13.46
640.939	21.46
641.061	19.46
641.183	21.46
641.305	15.46
641.427	15.46
641.549	20.46
641.671	23.46
641.793	19.46
641.915	26.46
642.038	14.46
642.16	7.46
642.282	22.46
642.404	12.46
642.526	42.46
642.648	13.46
642.77	16.46
642.892	24.46
643.014	40.46
643.136	14.46
643.258	26.46
643.381	27.46
643.503	38.46
643.625	14.46
643.747	-1.54
643.869	18.46
643.991	19.46
644.113	11.46
644.235	7.46
644.357	9.46
644.479	31.46
644.601	15.46
644.723	23.46
644.846	24.46
644.968	15.46
645.09	4.46
645.212	18.46
645.334	35.46
645.456	15.46
645.578	26.46
645.7	19.46
645.822	30.46
645.944	19.46
646.066	1.46
646.188	2.46
646.311	29.46
646.433	4.46
646.555	32.46
646.677	17.46
646.799	21.46
646.921	20.46
647.043	27.46
647.165	22.46
647.287	22.46
647.409	8.46
647.531	38.46
647.654	6.46
647.776	28.46
647.898	26.46
648.02	4.46
648.142	18.46
648.264	15.46
648.386	12.46
648.508	3.46
648.63	16.46
648.752	16.46
648.874	-6.54
648.997	8.46
649.119	26.46
649.241	28.46
649.363	18.46
649.485	28.46
649.607	15.46
649.729	13.46
649.851	20.46
649.973	17.46
650.095	40.46
650.217	14.46
650.34	13.46
650.462	23.46
650.584	25.46
650.706	25.46
650.828	23.46
650.95	-5.54
651.072	16.46
651.194	12.46
651.316	14.46
651.438	16.46
651.56	-4.54
651.683	-5.54
651.805	13.46
651.927	6.46
652.049	1.46
652.171	14.46
652.293	17.46
652.415	10.46
652.537	4.46
652.659	5.46
652.781	19.46
652.903	11.46
653.026	26.46
653.148	11.46
653.27	14.46
653.392	11.46
653.514	20.46
653.636	11.46
653.758	17.46
653.88	2.46
654.002	7.46
654.124	-4.54
654.247	6.46
654.369	4.46
654.491	14.46
654.613	16.46
654.735	11.46
654.857	24.46
654.979	16.46
655.101	16.46
655.223	42.46
655.345	22.46
655.468	7.46
655.59	11.46
655.712	3.46
655.834	9.46
655.956	31.46
656.078	22.46
656.2	16.46
656.322	11.46
656.444	-9.54
656.566	21.46
656.689	13.46
656.811	11.46
656.933	23.46
657.055	3.46
657.177	16.46
657.299	33.46
657.421	34.46
657.543	19.46
657.665	7.46
657.787	10.46
657.91	-10.54
658.032	16.46
658.154	10.46
658.276	10.46
658.398	-12.54
658.52	24.46
658.642	23.46
658.764	17.46
658.886	-7.54
659.009	19.46
659.131	28.46
659.253	37.46
659.375	21.46
659.497	3.46
659.619	22.46
659.741	12.46
659.863	11.46
659.985	10.46
660.108	18.46
660.23	4.46
660.352	23.46
660.474	24.46
660.596	19.46
660.718	15.46
660.84	20.46
660.962	22.46
661.084	0.46
661.207	8.46
661.329	32.46
661.451	10.46
661.573	6.46
661.695	47.46
661.817	22.46
661.939	23.46
662.061	28.46
662.184	13.46
662.306	19.46
662.428	5.46
662.55	20.46
662.672	12.46
662.794	14.46
662.916	3.46
663.038	16.46
663.161	40.46
663.283	16.46
663.405	11.46
663.527	14.46
663.649	23.46
663.771	9.46
663.893	2.46
664.015	14.46
664.138	13.46
664.26	16.46
664.382	10.46
664.504	2.46
664.626	-3.54
664.748	3.46
664.87	1.46
664.992	34.46
665.115	28.46
665.237	13.46
665.359	-0.54
665.481	12.46
665.603	16.46
665.725	-16.54
665.847	-5.54
665.97	17.46
666.092	20.46
666.214	26.46
666.336	18.46
666.458	19.46
666.58	25.46
666.702	2.46
666.825	-0.54
666.947	7.46
667.069	30.46
667.191	12.46
667.313	30.46
667.435	8.46
667.557	4.46
667.68	12.46
667.802	-3.54
667.924	11.46
668.046	13.46
668.168	17.46
668.29	32.46
668.412	0.46
668.535	13.46
668.657	21.46
668.779	8.46
668.901	9.46
669.023	22.46
669.145	10.46
669.267	32.46
669.39	31.46
669.512	-13.54
669.634	7.46
669.756	18.46
669.878	16.46
670	15.46
670.123	10.46
670.245	38.46
670.367	36.46
670.489	17.46
670.611	0.46
670.733	10.46
670.856	12.46
670.978	24.46
671.1	19.46
671.222	30.46
671.344	14.46
671.466	5.46
671.589	4.46
671.711	-2.54
671.833	-8.54
671.955	16.46
672.077	3.46
672.199	32.46
672.322	35.46
672.444	18.46
672.566	17.46
672.688	15.46
672.81	32.46
672.932	18.46
673.055	3.46
673.177	7.46
673.299	11.46
673.421	10.46
673.543	9.46
673.665	37.46
673.788	35.46
673.91	14.46
674.032	-8.54
674.154	14.46
674.276	19.46
674.399	9.46
674.521	2.46
674.643	16.46
674.765	20.46
674.887	20.46
675.009	3.46
675.132	8.46
675.254	10.46
675.376	21.46
675.498	-2.54
675.62	22.46
675.743	2.46
675.865	-1.54
675.987	4.46
676.109	10.46
676.231	38.46
676.354	38.46
676.476	9.46
676.598	8.46
676.72	11.46
676.842	23.46
676.965	31.46
677.087	26.46
677.209	13.46
677.331	25.46
677.453	17.46
677.576	-6.54
677.698	5.46
677.82	10.46
677.942	-0.54
678.064	4.46
678.187	3.46
678.309	7.46
678.431	3.46
678.553	20.46
678.675	19.46
678.798	29.46
678.92	10.46
679.042	11.46
679.164	4.46
679.286	25.46
679.409	0.46
679.531	-20.54
679.653	17.46
679.775	2.46
679.898	6.46
680.02	16.46
680.142	9.46
680.264	28.46
680.386	16.46
680.509	27.46
680.631	19.46
680.753	19.46
680.875	4.46
680.998	8.46
681.12	0.46
681.242	16.46
681.364	3.46
681.486	14.46
681.609	10.46
681.731	-5.54
681.853	-10.54
681.975	0.46
682.098	22.46
682.22	12.46
682.342	23.46
682.464	21.46
682.587	23.46
682.709	7.46
682.831	8.46
682.953	6.46
683.076	15.46
683.198	14.46
683.32	-3.54
683.442	3.46
683.565	20.46
683.687	0.46
683.809	-1.54
683.931	-1.54
684.054	29.46
684.176	10.46
684.298	19.46
684.42	3.46
684.543	-15.54
684.665	12.46
684.787	16.46
684.909	10.46
685.032	19.46
685.154	-18.54
685.276	4.46
685.398	3.46
685.521	-12.54
685.643	25.46
685.765	15.46
685.887	16.46
686.01	16.46
686.132	12.46
686.254	21.46
686.377	15.46
686.499	18.46
686.621	20.46
686.743	8.46
686.866	4.46
686.988	34.46
687.11	27.46
687.232	11.46
687.355	-4.54
687.477	7.46
687.599	15.46
687.722	12.46
687.844	8.46
687.966	17.46
688.088	10.46
688.211	44.46
688.333	29.46
688.455	25.46
688.578	28.46
688.7	22.46
688.822	8.46
688.944	23.46
689.067	43.46
689.189	19.46
689.311	-2.54
689.434	0.46
689.556	16.46
689.678	14.46
689.801	14.46
689.923	25.46
690.045	36.46
690.167	26.46
690.29	23.46
690.412	16.46
690.534	26.46
690.657	19.46
690.779	10.46
690.901	18.46
691.024	13.46
691.146	-7.54
691.268	-9.54
691.391	22.46
691.513	12.46
691.635	23.46
691.758	30.46
691.88	20.46
692.002	-8.54
692.125	17.46
692.247	10.46
692.369	41.46
692.492	13.46
692.614	-1.54
692.736	9.46
692.859	12.46
692.981	7.46
693.103	6.46
693.226	19.46
693.348	39.46
693.47	22.46
693.593	39.46
693.715	52.46
693.837	55.46
693.96	11.46
694.082	8.46
694.204	30.46
694.327	32.46
694.449	10.46
694.571	15.46
694.694	19.46
694.816	30.46
694.938	11.46
695.061	11.46
695.183	29.46
695.305	12.46
695.428	9.46
695.55	6.46
695.672	12.46
695.795	16.46
695.917	20.46
696.04	4.46
696.162	6.46
696.284	10.46
696.407	16.46
696.529	0.46
696.651	32.46
696.774	14.46
696.896	24.46
697.019	33.46
697.141	-2.54
697.263	16.46
697.386	8.46
697.508	3.46
697.63	23.46
697.753	14.46
697.875	20.46
697.998	6.46
698.12	18.46
698.242	3.46
698.365	9.46
698.487	20.46
698.61	22.46
698.732	30.46
698.854	16.46
698.977	4.46
699.099	34.46
699.221	0.46
699.344	17.46
699.466	12.46
699.589	13.46
699.711	0.46
699.834	2.46
699.956	27.46
700.078	14.46
700.201	-1.54
700.323	20.46
700.446	12.46
700.568	8.46
700.69	12.46
700.813	6.46
700.935	19.46
701.058	8.46
701.18	0.46
701.302	0.46
701.425	12.46
701.547	19.46
701.67	10.46
701.792	19.46
701.915	8.46
702.037	-0.54
702.159	22.46
702.282	13.46
702.404	11.46
702.527	27.46
702.649	19.46
702.772	29.46
702.894	18.46
703.017	34.46
703.139	32.46
703.261	18.46
703.384	14.46
703.506	9.46
703.629	1.46
703.751	20.46
703.874	18.46
703.996	8.46
704.119	-7.54
704.241	13.46
704.364	3.46
704.486	23.46
704.608	26.46
704.731	14.46
704.853	7.46
704.976	5.46
705.098	22.46
705.221	2.46
705.343	22.46
705.466	24.46
705.588	20.46
705.711	13.46
705.833	16.46
705.956	12.46
706.078	25.46
706.201	3.46
706.323	-5.54
706.446	8.46
