Data from LowRes_mercury_15_20_11_07_2024_HR4C61881__80__15-23-40-270.txt Node

Date: Thu Nov 07 15:23:40 EST 2024
User: crc00042
Spectrometer: HR4C6188
Trigger mode: 4
Integration Time (sec): 1.000000E-1
Scans to average: 1
Electric dark correction enabled: true
Nonlinearity correction enabled: false
Boxcar width: 0
XAxis mode: Wavelengths
Number of Pixels in Spectrum: 3648
>>>>>Begin Spectral Data<<<<<
245.66	-80.46
245.797	-80.46
245.934	-80.46
246.071	-63.46
246.208	4.54
246.344	18.54
246.481	-2.46
246.618	-19.46
246.755	5.54
246.892	0.54
247.029	-11.46
247.165	-3.46
247.302	6.54
247.439	-10.46
247.576	9.54
247.713	-8.46
247.849	24.54
247.986	-9.46
248.123	12.54
248.26	4.54
248.396	18.54
248.533	11.54
248.67	10.54
248.806	18.54
248.943	-18.46
249.08	-7.46
249.216	24.54
249.353	2.54
249.49	0.54
249.626	-7.46
249.763	-2.46
249.9	4.54
250.036	-5.46
250.173	-6.46
250.309	-5.46
250.446	8.54
250.582	13.54
250.719	-13.46
250.856	10.54
250.992	-2.46
251.129	-10.46
251.265	-1.46
251.402	-0.46
251.538	-19.46
251.675	-6.46
251.811	11.54
251.948	25.54
252.084	11.54
252.221	20.54
252.357	-13.46
252.493	30.54
252.63	-6.46
252.766	20.54
252.903	14.54
253.039	-6.46
253.175	-9.46
253.312	6.54
253.448	-19.46
253.585	-24.46
253.721	-14.46
253.857	5.54
253.994	21.54
254.13	-5.46
254.266	-4.46
254.403	-1.46
254.539	9.54
254.675	19.54
254.811	5.54
254.948	2.54
255.084	-6.46
255.22	-0.46
255.356	-0.46
255.493	3.54
255.629	14.54
255.765	2.54
255.901	5.54
256.037	-3.46
256.174	2.54
256.31	0.54
256.446	-25.46
256.582	4.54
256.718	17.54
256.854	11.54
256.991	-3.46
257.127	7.54
257.263	5.54
257.399	21.54
257.535	8.54
257.671	-5.46
257.807	-24.46
257.943	-10.46
258.079	-21.46
258.215	-5.46
258.351	12.54
258.487	20.54
258.623	21.54
258.759	11.54
258.895	4.54
259.031	2.54
259.167	-18.46
259.303	-7.46
259.439	11.54
259.575	-11.46
259.711	-10.46
259.847	6.54
259.983	20.54
260.119	10.54
260.255	3.54
260.391	14.54
260.527	15.54
260.663	16.54
260.799	14.54
260.934	-9.46
261.07	-13.46
261.206	-25.46
261.342	-27.46
261.478	22.54
261.614	4.54
261.749	21.54
261.885	11.54
262.021	4.54
262.157	9.54
262.293	1.54
262.428	-6.46
262.564	11.54
262.7	4.54
262.836	2.54
262.971	21.54
263.107	14.54
263.243	14.54
263.378	-0.46
263.514	-22.46
263.65	11.54
263.785	-17.46
263.921	11.54
264.057	-2.46
264.192	7.54
264.328	17.54
264.464	-2.46
264.599	21.54
264.735	20.54
264.871	-15.46
265.006	10.54
265.142	-3.46
265.277	2.54
265.413	20.54
265.548	24.54
265.684	25.54
265.819	12.54
265.955	-4.46
266.091	-4.46
266.226	-3.46
266.362	-8.46
266.497	4.54
266.633	5.54
266.768	-13.46
266.903	8.54
267.039	7.54
267.174	21.54
267.31	4.54
267.445	-7.46
267.581	-2.46
267.716	4.54
267.851	17.54
267.987	12.54
268.122	16.54
268.258	6.54
268.393	6.54
268.528	5.54
268.664	-2.46
268.799	-20.46
268.934	9.54
269.07	15.54
269.205	4.54
269.34	36.54
269.476	5.54
269.611	-15.46
269.746	25.54
269.881	8.54
270.017	4.54
270.152	-4.46
270.287	-3.46
270.422	-5.46
270.558	-18.46
270.693	1.54
270.828	-6.46
270.963	-3.46
271.098	-0.46
271.234	0.54
271.369	15.54
271.504	11.54
271.639	-5.46
271.774	-6.46
271.909	15.54
272.045	-13.46
272.18	-1.46
272.315	-3.46
272.45	25.54
272.585	-2.46
272.72	-14.46
272.855	2.54
272.99	20.54
273.125	-3.46
273.26	-6.46
273.395	1.54
273.53	-8.46
273.665	13.54
273.8	-3.46
273.935	-0.46
274.07	-6.46
274.205	-0.46
274.34	-7.46
274.475	-1.46
274.61	12.54
274.745	3.54
274.88	24.54
275.015	3.54
275.15	6.54
275.285	27.54
275.42	7.54
275.555	15.54
275.69	4.54
275.825	0.54
275.959	6.54
276.094	-11.46
276.229	0.54
276.364	-17.46
276.499	-11.46
276.634	3.54
276.768	0.54
276.903	3.54
277.038	-7.46
277.173	7.54
277.308	-0.46
277.442	-3.46
277.577	-4.46
277.712	9.54
277.847	-1.46
277.981	11.54
278.116	-20.46
278.251	6.54
278.386	22.54
278.52	18.54
278.655	10.54
278.79	20.54
278.924	16.54
279.059	-8.46
279.194	-6.46
279.328	37.54
279.463	7.54
279.598	22.54
279.732	7.54
279.867	18.54
280.001	11.54
280.136	12.54
280.271	-3.46
280.405	8.54
280.54	-7.46
280.674	-0.46
280.809	24.54
280.943	0.54
281.078	-1.46
281.213	2.54
281.347	19.54
281.482	23.54
281.616	4.54
281.751	-11.46
281.885	-17.46
282.02	0.54
282.154	8.54
282.288	-6.46
282.423	-11.46
282.557	-19.46
282.692	7.54
282.826	1.54
282.961	9.54
283.095	-11.46
283.229	-1.46
283.364	-4.46
283.498	-3.46
283.633	0.54
283.767	1.54
283.901	9.54
284.036	-3.46
284.17	-0.46
284.304	-4.46
284.439	27.54
284.573	-14.46
284.707	13.54
284.842	-4.46
284.976	8.54
285.11	-17.46
285.244	-17.46
285.379	38.54
285.513	0.54
285.647	3.54
285.781	1.54
285.916	9.54
286.05	4.54
286.184	23.54
286.318	17.54
286.453	17.54
286.587	-10.46
286.721	-2.46
286.855	9.54
286.989	7.54
287.123	-0.46
287.258	-7.46
287.392	-15.46
287.526	21.54
287.66	-7.46
287.794	-23.46
287.928	-2.46
288.062	-23.46
288.196	2.54
288.33	0.54
288.464	9.54
288.598	3.54
288.733	-7.46
288.867	14.54
289.001	6.54
289.135	4.54
289.269	-3.46
289.403	0.54
289.537	14.54
289.671	12.54
289.805	-8.46
289.939	-7.46
290.073	5.54
290.207	16.54
290.34	2.54
290.474	15.54
290.608	4.54
290.742	-12.46
290.876	-19.46
291.01	10.54
291.144	34.54
291.278	20.54
291.412	-2.46
291.546	7.54
291.679	-3.46
291.813	6.54
291.947	-5.46
292.081	2.54
292.215	0.54
292.349	1.54
292.482	15.54
292.616	10.54
292.75	13.54
292.884	11.54
293.018	1.54
293.151	-13.46
293.285	7.54
293.419	6.54
293.553	5.54
293.686	-2.46
293.82	8.54
293.954	14.54
294.088	6.54
294.221	7.54
294.355	17.54
294.489	7.54
294.622	-0.46
294.756	11.54
294.89	27.54
295.023	13.54
295.157	13.54
295.291	13.54
295.424	26.54
295.558	12.54
295.691	13.54
295.825	-8.46
295.959	14.54
296.092	10.54
296.226	8.54
296.359	10.54
296.493	16.54
296.627	21.54
296.76	-0.46
296.894	10.54
297.027	-3.46
297.161	4.54
297.294	-15.46
297.428	0.54
297.561	14.54
297.695	-0.46
297.828	-11.46
297.962	-23.46
298.095	4.54
298.229	10.54
298.362	-5.46
298.495	-0.46
298.629	4.54
298.762	-0.46
298.896	-11.46
299.029	-17.46
299.162	1.54
299.296	5.54
299.429	-5.46
299.563	13.54
299.696	4.54
299.829	20.54
299.963	51.54
300.096	13.54
300.229	6.54
300.363	12.54
300.496	33.54
300.629	-18.46
300.763	-0.46
300.896	-5.46
301.029	18.54
301.162	19.54
301.296	-7.46
301.429	1.54
301.562	-17.46
301.695	5.54
301.829	9.54
301.962	19.54
302.095	6.54
302.228	-15.46
302.362	-20.46
302.495	-6.46
302.628	12.54
302.761	12.54
302.894	-1.46
303.027	17.54
303.161	-6.46
303.294	0.54
303.427	33.54
303.56	25.54
303.693	-0.46
303.826	-0.46
303.959	-25.46
304.092	2.54
304.225	-10.46
304.359	-0.46
304.492	-2.46
304.625	13.54
304.758	-0.46
304.891	-15.46
305.024	10.54
305.157	-2.46
305.29	-14.46
305.423	-10.46
305.556	10.54
305.689	2.54
305.822	2.54
305.955	-0.46
306.088	-13.46
306.221	4.54
306.354	-8.46
306.487	-11.46
306.62	-7.46
306.752	9.54
306.885	16.54
307.018	-3.46
307.151	17.54
307.284	21.54
307.417	-9.46
307.55	17.54
307.683	3.54
307.816	3.54
307.948	13.54
308.081	19.54
308.214	17.54
308.347	22.54
308.48	-24.46
308.613	-9.46
308.745	3.54
308.878	6.54
309.011	-2.46
309.144	12.54
309.277	-10.46
309.409	12.54
309.542	-2.46
309.675	14.54
309.808	-2.46
309.94	4.54
310.073	-4.46
310.206	4.54
310.339	6.54
310.471	-8.46
310.604	15.54
310.737	-5.46
310.869	-6.46
311.002	-0.46
311.135	-18.46
311.267	-24.46
311.4	-4.46
311.533	29.54
311.665	2.54
311.798	2.54
311.93	20.54
312.063	32.54
312.196	47.54
312.328	77.54
312.461	55.54
312.593	31.54
312.726	57.54
312.859	94.54
312.991	157.54
313.124	42.54
313.256	25.54
313.389	22.54
313.521	0.54
313.654	10.54
313.786	-14.46
313.919	-8.46
314.051	4.54
314.184	13.54
314.316	7.54
314.449	-7.46
314.581	-1.46
314.714	-1.46
314.846	9.54
314.978	9.54
315.111	-5.46
315.243	7.54
315.376	8.54
315.508	7.54
315.641	-0.46
315.773	36.54
315.905	-8.46
316.038	6.54
316.17	18.54
316.302	6.54
316.435	-13.46
316.567	6.54
316.699	14.54
316.832	0.54
316.964	6.54
317.096	-2.46
317.229	-1.46
317.361	-6.46
317.493	-3.46
317.625	1.54
317.758	12.54
317.89	10.54
318.022	1.54
318.155	8.54
318.287	-3.46
318.419	5.54
318.551	7.54
318.683	1.54
318.816	-7.46
318.948	-2.46
319.08	-3.46
319.212	2.54
319.344	-1.46
319.477	14.54
319.609	3.54
319.741	22.54
319.873	6.54
320.005	2.54
320.137	8.54
320.269	13.54
320.401	-0.46
320.534	2.54
320.666	-24.46
320.798	-5.46
320.93	-4.46
321.062	-5.46
321.194	-10.46
321.326	26.54
321.458	29.54
321.59	6.54
321.722	-13.46
321.854	12.54
321.986	0.54
322.118	3.54
322.25	5.54
322.382	4.54
322.514	-8.46
322.646	0.54
322.778	16.54
322.91	-1.46
323.042	-6.46
323.174	-10.46
323.306	-7.46
323.438	-1.46
323.57	17.54
323.702	13.54
323.834	13.54
323.966	-11.46
324.097	3.54
324.229	19.54
324.361	21.54
324.493	7.54
324.625	9.54
324.757	8.54
324.889	-2.46
325.021	18.54
325.152	28.54
325.284	13.54
325.416	-3.46
325.548	13.54
325.68	-7.46
325.811	34.54
325.943	6.54
326.075	-24.46
326.207	1.54
326.339	24.54
326.47	4.54
326.602	24.54
326.734	25.54
326.866	24.54
326.997	-6.46
327.129	4.54
327.261	-6.46
327.392	2.54
327.524	2.54
327.656	7.54
327.787	21.54
327.919	-7.46
328.051	-2.46
328.182	16.54
328.314	16.54
328.446	-3.46
328.577	13.54
328.709	8.54
328.841	1.54
328.972	-5.46
329.104	6.54
329.235	9.54
329.367	1.54
329.499	17.54
329.63	3.54
329.762	17.54
329.893	20.54
330.025	-3.46
330.156	-2.46
330.288	20.54
330.419	5.54
330.551	2.54
330.683	-6.46
330.814	-1.46
330.946	22.54
331.077	-2.46
331.208	-1.46
331.34	20.54
331.471	-5.46
331.603	15.54
331.734	-7.46
331.866	5.54
331.997	9.54
332.129	-13.46
332.26	-20.46
332.392	20.54
332.523	-4.46
332.654	-13.46
332.786	11.54
332.917	-2.46
333.048	11.54
333.18	19.54
333.311	1.54
333.443	1.54
333.574	0.54
333.705	32.54
333.837	23.54
333.968	112.54
334.099	237.54
334.231	202.54
334.362	77.54
334.493	36.54
334.624	19.54
334.756	-9.46
334.887	4.54
335.018	9.54
335.15	32.54
335.281	21.54
335.412	19.54
335.543	29.54
335.675	35.54
335.806	25.54
335.937	6.54
336.068	10.54
336.199	34.54
336.331	-3.46
336.462	4.54
336.593	14.54
336.724	8.54
336.855	3.54
336.986	12.54
337.118	9.54
337.249	28.54
337.38	16.54
337.511	13.54
337.642	-0.46
337.773	24.54
337.904	20.54
338.035	-3.46
338.166	8.54
338.298	8.54
338.429	-2.46
338.56	17.54
338.691	28.54
338.822	18.54
338.953	22.54
339.084	20.54
339.215	20.54
339.346	25.54
339.477	-4.46
339.608	-5.46
339.739	19.54
339.87	12.54
340.001	-15.46
340.132	16.54
340.263	16.54
340.394	25.54
340.525	2.54
340.656	-0.46
340.787	14.54
340.918	22.54
341.049	16.54
341.179	7.54
341.31	10.54
341.441	21.54
341.572	17.54
341.703	8.54
341.834	14.54
341.965	11.54
342.096	6.54
342.227	16.54
342.357	22.54
342.488	30.54
342.619	19.54
342.75	8.54
342.881	7.54
343.012	27.54
343.142	51.54
343.273	33.54
343.404	24.54
343.535	64.54
343.666	21.54
343.796	44.54
343.927	42.54
344.058	37.54
344.189	26.54
344.319	12.54
344.45	32.54
344.581	36.54
344.712	7.54
344.842	39.54
344.973	24.54
345.104	29.54
345.234	19.54
345.365	14.54
345.496	31.54
345.626	47.54
345.757	29.54
345.888	1.54
346.018	33.54
346.149	30.54
346.28	30.54
346.41	7.54
346.541	43.54
346.672	24.54
346.802	32.54
346.933	24.54
347.063	37.54
347.194	25.54
347.325	36.54
347.455	45.54
347.586	34.54
347.716	27.54
347.847	41.54
347.977	51.54
348.108	40.54
348.238	34.54
348.369	38.54
348.499	49.54
348.63	50.54
348.76	59.54
348.891	58.54
349.021	60.54
349.152	53.54
349.282	49.54
349.413	32.54
349.543	43.54
349.674	29.54
349.804	51.54
349.935	14.54
350.065	19.54
350.196	22.54
350.326	29.54
350.456	17.54
350.587	40.54
350.717	22.54
350.848	29.54
350.978	46.54
351.108	11.54
351.239	45.54
351.369	5.54
351.499	11.54
351.63	16.54
351.76	34.54
351.89	31.54
352.021	27.54
352.151	21.54
352.281	14.54
352.412	32.54
352.542	15.54
352.672	31.54
352.803	29.54
352.933	38.54
353.063	34.54
353.193	29.54
353.324	23.54
353.454	16.54
353.584	36.54
353.714	13.54
353.845	31.54
353.975	15.54
354.105	25.54
354.235	25.54
354.365	22.54
354.496	25.54
354.626	33.54
354.756	30.54
354.886	12.54
355.016	12.54
355.146	17.54
355.277	20.54
355.407	15.54
355.537	29.54
355.667	39.54
355.797	33.54
355.927	24.54
356.057	30.54
356.187	10.54
356.318	21.54
356.448	24.54
356.578	17.54
356.708	45.54
356.838	30.54
356.968	21.54
357.098	34.54
357.228	30.54
357.358	29.54
357.488	39.54
357.618	58.54
357.748	29.54
357.878	28.54
358.008	24.54
358.138	29.54
358.268	13.54
358.398	30.54
358.528	14.54
358.658	31.54
358.788	37.54
358.918	28.54
359.048	32.54
359.178	47.54
359.308	35.54
359.438	47.54
359.568	21.54
359.698	30.54
359.827	26.54
359.957	28.54
360.087	21.54
360.217	29.54
360.347	38.54
360.477	29.54
360.607	21.54
360.737	39.54
360.866	39.54
360.996	30.54
361.126	29.54
361.256	55.54
361.386	46.54
361.516	44.54
361.645	15.54
361.775	50.54
361.905	12.54
362.035	22.54
362.165	19.54
362.294	38.54
362.424	61.54
362.554	58.54
362.684	30.54
362.813	37.54
362.943	43.54
363.073	41.54
363.203	39.54
363.332	83.54
363.462	86.54
363.592	102.54
363.721	129.54
363.851	147.54
363.981	206.54
364.111	242.54
364.24	312.54
364.37	467.54
364.5	842.54
364.629	1810.54
364.759	3810.54
364.888	6298.54
365.018	9375.54
365.148	14789.54
365.277	12908.54
365.407	4752.54
365.537	3142.54
365.666	3999.54
365.796	1814.54
365.925	822.54
366.055	784.54
366.184	1048.54
366.314	1398.54
366.444	2420.54
366.573	2095.54
366.703	646.54
366.832	210.54
366.962	106.54
367.091	95.54
367.221	72.54
367.35	37.54
367.48	80.54
367.609	57.54
367.739	64.54
367.868	22.54
367.998	54.54
368.127	61.54
368.257	72.54
368.386	70.54
368.516	67.54
368.645	44.54
368.775	49.54
368.904	38.54
369.033	43.54
369.163	24.54
369.292	45.54
369.422	26.54
369.551	20.54
369.68	46.54
369.81	55.54
369.939	21.54
370.069	60.54
370.198	51.54
370.327	13.54
370.457	25.54
370.586	37.54
370.715	56.54
370.845	32.54
370.974	58.54
371.103	57.54
371.233	50.54
371.362	48.54
371.491	43.54
371.621	67.54
371.75	57.54
371.879	38.54
372.008	50.54
372.138	38.54
372.267	54.54
372.396	38.54
372.525	37.54
372.655	30.54
372.784	39.54
372.913	31.54
373.042	24.54
373.172	52.54
373.301	5.54
373.43	5.54
373.559	20.54
373.688	20.54
373.818	43.54
373.947	45.54
374.076	26.54
374.205	23.54
374.334	10.54
374.463	0.54
374.593	29.54
374.722	32.54
374.851	31.54
374.98	14.54
375.109	29.54
375.238	31.54
375.367	29.54
375.496	5.54
375.625	6.54
375.755	32.54
375.884	35.54
376.013	26.54
376.142	8.54
376.271	9.54
376.4	11.54
376.529	15.54
376.658	35.54
376.787	19.54
376.916	11.54
377.045	10.54
377.174	29.54
377.303	18.54
377.432	60.54
377.561	48.54
377.69	32.54
377.819	43.54
377.948	21.54
378.077	16.54
378.206	8.54
378.335	-4.46
378.464	17.54
378.593	36.54
378.722	13.54
378.851	0.54
378.98	24.54
379.108	12.54
379.237	5.54
379.366	26.54
379.495	20.54
379.624	12.54
379.753	13.54
379.882	-0.46
380.011	1.54
380.14	-1.46
380.268	15.54
380.397	18.54
380.526	22.54
380.655	0.54
380.784	2.54
380.913	9.54
381.041	11.54
381.17	16.54
381.299	24.54
381.428	6.54
381.557	11.54
381.685	22.54
381.814	22.54
381.943	16.54
382.072	-9.46
382.2	7.54
382.329	36.54
382.458	18.54
382.587	31.54
382.715	20.54
382.844	16.54
382.973	25.54
383.102	30.54
383.23	-4.46
383.359	5.54
383.488	24.54
383.616	22.54
383.745	8.54
383.874	29.54
384.003	12.54
384.131	-3.46
384.26	21.54
384.389	12.54
384.517	-7.46
384.646	12.54
384.774	30.54
384.903	25.54
385.032	29.54
385.16	22.54
385.289	12.54
385.418	24.54
385.546	27.54
385.675	30.54
385.803	14.54
385.932	18.54
386.06	8.54
386.189	21.54
386.318	14.54
386.446	12.54
386.575	35.54
386.703	36.54
386.832	21.54
386.96	10.54
387.089	50.54
387.217	11.54
387.346	19.54
387.474	27.54
387.603	28.54
387.731	17.54
387.86	22.54
387.988	22.54
388.117	27.54
388.245	8.54
388.374	31.54
388.502	34.54
388.631	23.54
388.759	14.54
388.888	27.54
389.016	20.54
389.144	6.54
389.273	18.54
389.401	28.54
389.53	19.54
389.658	37.54
389.786	5.54
389.915	5.54
390.043	14.54
390.172	26.54
390.3	49.54
390.428	47.54
390.557	35.54
390.685	46.54
390.813	59.54
390.942	45.54
391.07	11.54
391.198	21.54
391.327	24.54
391.455	11.54
391.583	48.54
391.712	28.54
391.84	20.54
391.968	27.54
392.096	27.54
392.225	23.54
392.353	32.54
392.481	17.54
392.609	51.54
392.738	31.54
392.866	24.54
392.994	30.54
393.122	48.54
393.251	8.54
393.379	-1.46
393.507	5.54
393.635	15.54
393.764	31.54
393.892	38.54
394.02	13.54
394.148	25.54
394.276	20.54
394.404	59.54
394.533	35.54
394.661	36.54
394.789	38.54
394.917	52.54
395.045	16.54
395.173	18.54
395.302	33.54
395.43	24.54
395.558	38.54
395.686	42.54
395.814	49.54
395.942	26.54
396.07	30.54
396.198	42.54
396.326	32.54
396.454	47.54
396.582	28.54
396.711	32.54
396.839	23.54
396.967	44.54
397.095	34.54
397.223	40.54
397.351	38.54
397.479	59.54
397.607	43.54
397.735	50.54
397.863	61.54
397.991	44.54
398.119	50.54
398.247	33.54
398.375	35.54
398.503	45.54
398.631	60.54
398.759	50.54
398.887	38.54
399.015	39.54
399.143	54.54
399.271	56.54
399.399	60.54
399.526	81.54
399.654	75.54
399.782	61.54
399.91	101.54
400.038	98.54
400.166	83.54
400.294	98.54
400.422	83.54
400.55	108.54
400.678	97.54
400.805	113.54
400.933	109.54
401.061	102.54
401.189	111.54
401.317	142.54
401.445	98.54
401.573	79.54
401.7	44.54
401.828	57.54
401.956	30.54
402.084	27.54
402.212	34.54
402.34	11.54
402.467	33.54
402.595	21.54
402.723	41.54
402.851	54.54
402.978	62.54
403.106	89.54
403.234	106.54
403.362	125.54
403.489	116.54
403.617	168.54
403.745	208.54
403.873	280.54
404	567.54
404.128	1448.54
404.256	3900.54
404.384	5101.54
404.511	5481.54
404.639	7161.54
404.767	11465.54
404.894	14620.54
405.022	4921.54
405.15	1282.54
405.277	407.54
405.405	236.54
405.533	115.54
405.66	114.54
405.788	72.54
405.916	58.54
406.043	41.54
406.171	62.54
406.299	77.54
406.426	51.54
406.554	45.54
406.681	64.54
406.809	63.54
406.937	72.54
407.064	59.54
407.192	129.54
407.319	309.54
407.447	529.54
407.574	526.54
407.702	623.54
407.83	846.54
407.957	1580.54
408.085	912.54
408.212	281.54
408.34	99.54
408.467	58.54
408.595	65.54
408.722	69.54
408.85	59.54
408.977	27.54
409.105	46.54
409.232	31.54
409.36	33.54
409.487	37.54
409.615	35.54
409.742	12.54
409.87	32.54
409.997	45.54
410.125	50.54
410.252	53.54
410.379	23.54
410.507	38.54
410.634	39.54
410.762	20.54
410.889	39.54
411.017	41.54
411.144	28.54
411.271	11.54
411.399	11.54
411.526	13.54
411.653	14.54
411.781	34.54
411.908	32.54
412.036	13.54
412.163	47.54
412.29	37.54
412.418	40.54
412.545	38.54
412.672	38.54
412.8	39.54
412.927	23.54
413.054	36.54
413.182	36.54
413.309	27.54
413.436	31.54
413.564	30.54
413.691	23.54
413.818	35.54
413.945	20.54
414.073	28.54
414.2	32.54
414.327	22.54
414.454	40.54
414.582	32.54
414.709	13.54
414.836	45.54
414.963	40.54
415.091	16.54
415.218	18.54
415.345	30.54
415.472	41.54
415.6	25.54
415.727	22.54
415.854	21.54
415.981	29.54
416.108	32.54
416.236	26.54
416.363	42.54
416.49	30.54
416.617	31.54
416.744	44.54
416.871	44.54
416.998	22.54
417.126	38.54
417.253	29.54
417.38	18.54
417.507	22.54
417.634	35.54
417.761	39.54
417.888	25.54
418.015	44.54
418.143	31.54
418.27	46.54
418.397	36.54
418.524	28.54
418.651	29.54
418.778	42.54
418.905	61.54
419.032	54.54
419.159	32.54
419.286	40.54
419.413	54.54
419.54	65.54
419.667	40.54
419.794	23.54
419.921	37.54
420.048	38.54
420.175	43.54
420.302	37.54
420.429	44.54
420.556	38.54
420.683	42.54
420.81	50.54
420.937	59.54
421.064	51.54
421.191	62.54
421.318	78.54
421.445	81.54
421.572	49.54
421.699	35.54
421.826	44.54
421.953	41.54
422.08	28.54
422.207	17.54
422.334	10.54
422.461	31.54
422.588	25.54
422.714	32.54
422.841	27.54
422.968	37.54
423.095	18.54
423.222	11.54
423.349	33.54
423.476	36.54
423.603	22.54
423.729	-0.46
423.856	30.54
423.983	25.54
424.11	21.54
424.237	20.54
424.364	25.54
424.491	16.54
424.617	2.54
424.744	2.54
424.871	24.54
424.998	26.54
425.125	9.54
425.251	17.54
425.378	11.54
425.505	36.54
425.632	28.54
425.758	9.54
425.885	33.54
426.012	20.54
426.139	43.54
426.266	23.54
426.392	45.54
426.519	28.54
426.646	13.54
426.772	33.54
426.899	13.54
427.026	18.54
427.153	21.54
427.279	29.54
427.406	18.54
427.533	28.54
427.659	4.54
427.786	16.54
427.913	42.54
428.039	-2.46
428.166	17.54
428.293	21.54
428.419	35.54
428.546	19.54
428.673	16.54
428.799	18.54
428.926	28.54
429.053	25.54
429.179	31.54
429.306	33.54
429.433	56.54
429.559	45.54
429.686	16.54
429.812	9.54
429.939	29.54
430.066	7.54
430.192	11.54
430.319	40.54
430.445	35.54
430.572	18.54
430.699	0.54
430.825	21.54
430.952	34.54
431.078	17.54
431.205	27.54
431.331	18.54
431.458	41.54
431.584	31.54
431.711	20.54
431.837	37.54
431.964	18.54
432.09	27.54
432.217	-5.46
432.343	2.54
432.47	46.54
432.596	18.54
432.723	24.54
432.849	23.54
432.976	47.54
433.102	34.54
433.229	18.54
433.355	64.54
433.482	81.54
433.608	109.54
433.735	95.54
433.861	117.54
433.987	165.54
434.114	208.54
434.24	176.54
434.367	210.54
434.493	232.54
434.62	290.54
434.746	370.54
434.872	637.54
434.999	845.54
435.125	1756.54
435.252	5529.54
435.378	13450.54
435.504	15219.54
435.631	15421.54
435.757	15683.54
435.883	15683.54
436.01	15683.54
436.136	15683.54
436.262	15683.54
436.389	3452.54
436.515	2041.54
436.641	763.54
436.768	615.54
436.894	366.54
437.02	389.54
437.147	285.54
437.273	296.54
437.399	230.54
437.526	246.54
437.652	192.54
437.778	202.54
437.904	140.54
438.031	161.54
438.157	128.54
438.283	145.54
438.409	121.54
438.536	125.54
438.662	132.54
438.788	125.54
438.914	114.54
439.041	112.54
439.167	125.54
439.293	102.54
439.419	92.54
439.546	98.54
439.672	86.54
439.798	101.54
439.924	84.54
440.05	101.54
440.177	89.54
440.303	62.54
440.429	55.54
440.555	62.54
440.681	47.54
440.807	53.54
440.934	37.54
441.06	78.54
441.186	65.54
441.312	48.54
441.438	56.54
441.564	61.54
441.69	71.54
441.816	53.54
441.943	53.54
442.069	65.54
442.195	61.54
442.321	52.54
442.447	40.54
442.573	47.54
442.699	50.54
442.825	47.54
442.951	31.54
443.077	57.54
443.203	50.54
443.33	40.54
443.456	33.54
443.582	46.54
443.708	22.54
443.834	45.54
443.96	56.54
444.086	61.54
444.212	66.54
444.338	60.54
444.464	47.54
444.59	60.54
444.716	35.54
444.842	47.54
444.968	20.54
445.094	36.54
445.22	37.54
445.346	29.54
445.472	38.54
445.598	52.54
445.724	38.54
445.85	30.54
445.976	33.54
446.102	44.54
446.228	51.54
446.354	42.54
446.48	32.54
446.605	45.54
446.731	45.54
446.857	29.54
446.983	42.54
447.109	17.54
447.235	23.54
447.361	21.54
447.487	28.54
447.613	58.54
447.739	37.54
447.865	18.54
447.99	30.54
448.116	47.54
448.242	33.54
448.368	52.54
448.494	24.54
448.62	42.54
448.746	29.54
448.872	29.54
448.997	14.54
449.123	35.54
449.249	44.54
449.375	38.54
449.501	27.54
449.627	14.54
449.752	38.54
449.878	34.54
450.004	31.54
450.13	29.54
450.256	18.54
450.381	24.54
450.507	21.54
450.633	28.54
450.759	52.54
450.884	34.54
451.01	33.54
451.136	21.54
451.262	40.54
451.388	21.54
451.513	17.54
451.639	11.54
451.765	28.54
451.89	23.54
452.016	31.54
452.142	16.54
452.268	36.54
452.393	30.54
452.519	26.54
452.645	7.54
452.771	10.54
452.896	14.54
453.022	20.54
453.148	34.54
453.273	37.54
453.399	37.54
453.525	16.54
453.65	7.54
453.776	37.54
453.902	43.54
454.027	53.54
454.153	22.54
454.279	19.54
454.404	28.54
454.53	34.54
454.656	44.54
454.781	30.54
454.907	18.54
455.032	11.54
455.158	36.54
455.284	20.54
455.409	32.54
455.535	35.54
455.66	49.54
455.786	44.54
455.912	34.54
456.037	23.54
456.163	37.54
456.288	28.54
456.414	11.54
456.539	21.54
456.665	37.54
456.791	14.54
456.916	21.54
457.042	34.54
457.167	17.54
457.293	28.54
457.418	11.54
457.544	33.54
457.669	27.54
457.795	41.54
457.92	49.54
458.046	49.54
458.171	39.54
458.297	22.54
458.422	16.54
458.548	17.54
458.673	44.54
458.799	25.54
458.924	12.54
459.05	15.54
459.175	14.54
459.301	25.54
459.426	24.54
459.552	15.54
459.677	28.54
459.803	53.54
459.928	28.54
460.053	18.54
460.179	30.54
460.304	38.54
460.43	-0.46
460.555	11.54
460.681	24.54
460.806	21.54
460.931	18.54
461.057	21.54
461.182	28.54
461.308	56.54
461.433	38.54
461.558	20.54
461.684	34.54
461.809	21.54
461.934	21.54
462.06	29.54
462.185	21.54
462.311	29.54
462.436	30.54
462.561	39.54
462.687	33.54
462.812	21.54
462.937	21.54
463.063	6.54
463.188	15.54
463.313	37.54
463.439	21.54
463.564	38.54
463.689	26.54
463.814	44.54
463.94	34.54
464.065	32.54
464.19	40.54
464.316	25.54
464.441	13.54
464.566	9.54
464.692	28.54
464.817	18.54
464.942	19.54
465.067	16.54
465.193	5.54
465.318	30.54
465.443	19.54
465.568	-0.46
465.694	17.54
465.819	35.54
465.944	34.54
466.069	13.54
466.194	50.54
466.32	33.54
466.445	30.54
466.57	37.54
466.695	26.54
466.82	16.54
466.946	34.54
467.071	23.54
467.196	42.54
467.321	51.54
467.446	38.54
467.572	46.54
467.697	14.54
467.822	40.54
467.947	46.54
468.072	35.54
468.197	26.54
468.323	25.54
468.448	36.54
468.573	24.54
468.698	12.54
468.823	44.54
468.948	31.54
469.073	27.54
469.198	44.54
469.324	51.54
469.449	31.54
469.574	52.54
469.699	49.54
469.824	37.54
469.949	7.54
470.074	48.54
470.199	47.54
470.324	48.54
470.449	44.54
470.574	27.54
470.7	33.54
470.825	48.54
470.95	51.54
471.075	46.54
471.2	50.54
471.325	48.54
471.45	28.54
471.575	14.54
471.7	25.54
471.825	39.54
471.95	21.54
472.075	34.54
472.2	32.54
472.325	29.54
472.45	18.54
472.575	33.54
472.7	33.54
472.825	39.54
472.95	44.54
473.075	34.54
473.2	33.54
473.325	40.54
473.45	29.54
473.575	44.54
473.7	55.54
473.825	32.54
473.95	25.54
474.075	37.54
474.2	29.54
474.325	23.54
474.45	33.54
474.574	34.54
474.699	38.54
474.824	17.54
474.949	13.54
475.074	15.54
475.199	37.54
475.324	19.54
475.449	25.54
475.574	45.54
475.699	29.54
475.824	13.54
475.949	22.54
476.073	32.54
476.198	30.54
476.323	30.54
476.448	30.54
476.573	25.54
476.698	44.54
476.823	23.54
476.947	31.54
477.072	12.54
477.197	36.54
477.322	21.54
477.447	5.54
477.572	11.54
477.697	14.54
477.821	19.54
477.946	21.54
478.071	34.54
478.196	28.54
478.321	20.54
478.445	14.54
478.57	19.54
478.695	22.54
478.82	34.54
478.945	22.54
479.069	12.54
479.194	20.54
479.319	24.54
479.444	30.54
479.569	7.54
479.693	30.54
479.818	23.54
479.943	28.54
480.068	12.54
480.192	21.54
480.317	28.54
480.442	10.54
480.567	34.54
480.691	25.54
480.816	10.54
480.941	17.54
481.066	13.54
481.19	26.54
481.315	18.54
481.44	16.54
481.564	5.54
481.689	23.54
481.814	8.54
481.938	32.54
482.063	6.54
482.188	25.54
482.313	24.54
482.437	12.54
482.562	23.54
482.687	28.54
482.811	20.54
482.936	12.54
483.061	10.54
483.185	27.54
483.31	37.54
483.435	21.54
483.559	10.54
483.684	21.54
483.808	48.54
483.933	19.54
484.058	14.54
484.182	11.54
484.307	19.54
484.432	27.54
484.556	9.54
484.681	15.54
484.805	21.54
484.93	29.54
485.055	13.54
485.179	38.54
485.304	25.54
485.428	20.54
485.553	21.54
485.678	26.54
485.802	23.54
485.927	51.54
486.051	20.54
486.176	24.54
486.3	25.54
486.425	22.54
486.549	33.54
486.674	45.54
486.799	20.54
486.923	19.54
487.048	11.54
487.172	22.54
487.297	17.54
487.421	31.54
487.546	18.54
487.67	38.54
487.795	20.54
487.919	26.54
488.044	25.54
488.168	29.54
488.293	25.54
488.417	12.54
488.542	34.54
488.666	38.54
488.791	25.54
488.915	20.54
489.04	27.54
489.164	24.54
489.289	24.54
489.413	9.54
489.538	34.54
489.662	40.54
489.786	21.54
489.911	46.54
490.035	33.54
490.16	9.54
490.284	4.54
490.409	13.54
490.533	30.54
490.658	48.54
490.782	37.54
490.906	60.54
491.031	118.54
491.155	138.54
491.28	157.54
491.404	158.54
491.528	244.54
491.653	170.54
491.777	69.54
491.902	31.54
492.026	18.54
492.15	22.54
492.275	41.54
492.399	28.54
492.524	20.54
492.648	40.54
492.772	30.54
492.897	38.54
493.021	23.54
493.145	28.54
493.27	5.54
493.394	15.54
493.518	24.54
493.643	11.54
493.767	31.54
493.891	21.54
494.016	24.54
494.14	25.54
494.264	18.54
494.389	44.54
494.513	17.54
494.637	9.54
494.762	17.54
494.886	18.54
495.01	22.54
495.134	25.54
495.259	39.54
495.383	43.54
495.507	30.54
495.632	48.54
495.756	54.54
495.88	31.54
496.004	13.54
496.129	17.54
496.253	28.54
496.377	24.54
496.501	40.54
496.626	17.54
496.75	29.54
496.874	21.54
496.998	16.54
497.123	31.54
497.247	19.54
497.371	24.54
497.495	28.54
497.62	15.54
497.744	22.54
497.868	26.54
497.992	16.54
498.116	13.54
498.241	22.54
498.365	-2.46
498.489	15.54
498.613	31.54
498.737	34.54
498.862	6.54
498.986	-5.46
499.11	13.54
499.234	18.54
499.358	8.54
499.482	20.54
499.607	30.54
499.731	27.54
499.855	46.54
499.979	30.54
500.103	26.54
500.227	30.54
500.351	32.54
500.476	18.54
500.6	23.54
500.724	30.54
500.848	22.54
500.972	22.54
501.096	18.54
501.22	27.54
501.344	13.54
501.469	18.54
501.593	32.54
501.717	22.54
501.841	24.54
501.965	19.54
502.089	23.54
502.213	37.54
502.337	26.54
502.461	26.54
502.585	29.54
502.709	25.54
502.834	31.54
502.958	20.54
503.082	29.54
503.206	20.54
503.33	39.54
503.454	33.54
503.578	34.54
503.702	21.54
503.826	26.54
503.95	13.54
504.074	20.54
504.198	18.54
504.322	14.54
504.446	32.54
504.57	22.54
504.694	42.54
504.818	9.54
504.942	47.54
505.066	22.54
505.19	26.54
505.314	13.54
505.438	18.54
505.562	26.54
505.686	33.54
505.81	31.54
505.934	27.54
506.058	19.54
506.182	37.54
506.306	27.54
506.43	20.54
506.554	25.54
506.678	15.54
506.802	9.54
506.926	23.54
507.05	45.54
507.174	31.54
507.298	24.54
507.422	25.54
507.546	41.54
507.67	26.54
507.794	0.54
507.918	17.54
508.042	25.54
508.165	18.54
508.289	24.54
508.413	16.54
508.537	24.54
508.661	53.54
508.785	22.54
508.909	25.54
509.033	48.54
509.157	35.54
509.281	25.54
509.405	44.54
509.528	47.54
509.652	63.54
509.776	48.54
509.9	49.54
510.024	39.54
510.148	34.54
510.272	42.54
510.396	47.54
510.519	41.54
510.643	45.54
510.767	50.54
510.891	43.54
511.015	36.54
511.139	48.54
511.263	68.54
511.386	50.54
511.51	51.54
511.634	41.54
511.758	31.54
511.882	27.54
512.006	48.54
512.129	52.54
512.253	73.54
512.377	69.54
512.501	92.54
512.625	92.54
512.748	85.54
512.872	78.54
512.996	56.54
513.12	75.54
513.244	56.54
513.367	71.54
513.491	64.54
513.615	84.54
513.739	86.54
513.862	70.54
513.986	76.54
514.11	98.54
514.234	85.54
514.358	93.54
514.481	112.54
514.605	112.54
514.729	110.54
514.853	109.54
514.976	112.54
515.1	112.54
515.224	116.54
515.348	101.54
515.471	89.54
515.595	116.54
515.719	156.54
515.842	225.54
515.966	276.54
516.09	321.54
516.214	311.54
516.337	326.54
516.461	238.54
516.585	83.54
516.708	45.54
516.832	26.54
516.956	34.54
517.08	11.54
517.203	12.54
517.327	9.54
517.451	48.54
517.574	37.54
517.698	21.54
517.822	21.54
517.945	35.54
518.069	22.54
518.193	55.54
518.316	20.54
518.44	6.54
518.564	31.54
518.687	25.54
518.811	18.54
518.935	43.54
519.058	25.54
519.182	26.54
519.306	26.54
519.429	23.54
519.553	32.54
519.676	20.54
519.8	22.54
519.924	11.54
520.047	21.54
520.171	7.54
520.294	9.54
520.418	21.54
520.542	10.54
520.665	46.54
520.789	30.54
520.913	19.54
521.036	-7.46
521.16	17.54
521.283	6.54
521.407	20.54
521.53	20.54
521.654	0.54
521.778	23.54
521.901	17.54
522.025	29.54
522.148	20.54
522.272	24.54
522.395	26.54
522.519	29.54
522.643	13.54
522.766	20.54
522.89	10.54
523.013	37.54
523.137	3.54
523.26	34.54
523.384	24.54
523.507	6.54
523.631	-9.46
523.754	13.54
523.878	8.54
524.002	16.54
524.125	20.54
524.249	11.54
524.372	13.54
524.496	10.54
524.619	12.54
524.743	27.54
524.866	26.54
524.99	34.54
525.113	-5.46
525.237	25.54
525.36	13.54
525.484	26.54
525.607	18.54
525.731	5.54
525.854	16.54
525.978	36.54
526.101	8.54
526.224	14.54
526.348	20.54
526.471	15.54
526.595	30.54
526.718	22.54
526.842	-5.46
526.965	30.54
527.089	9.54
527.212	10.54
527.336	-10.46
527.459	12.54
527.582	20.54
527.706	27.54
527.829	15.54
527.953	12.54
528.076	12.54
528.2	12.54
528.323	24.54
528.446	36.54
528.57	25.54
528.693	16.54
528.817	14.54
528.94	32.54
529.064	50.54
529.187	19.54
529.31	11.54
529.434	7.54
529.557	7.54
529.68	8.54
529.804	21.54
529.927	22.54
530.051	12.54
530.174	11.54
530.297	25.54
530.421	28.54
530.544	28.54
530.668	41.54
530.791	19.54
530.914	30.54
531.038	14.54
531.161	13.54
531.284	24.54
531.408	19.54
531.531	14.54
531.654	14.54
531.778	20.54
531.901	13.54
532.024	25.54
532.148	30.54
532.271	23.54
532.394	22.54
532.518	25.54
532.641	11.54
532.764	45.54
532.888	22.54
533.011	17.54
533.134	6.54
533.258	27.54
533.381	4.54
533.504	8.54
533.628	8.54
533.751	15.54
533.874	-1.46
533.997	26.54
534.121	6.54
534.244	17.54
534.367	16.54
534.491	1.54
534.614	8.54
534.737	22.54
534.86	25.54
534.984	14.54
535.107	4.54
535.23	14.54
535.354	14.54
535.477	12.54
535.6	17.54
535.723	22.54
535.847	23.54
535.97	27.54
536.093	21.54
536.216	14.54
536.34	5.54
536.463	5.54
536.586	20.54
536.709	30.54
536.833	18.54
536.956	13.54
537.079	11.54
537.202	37.54
537.325	11.54
537.449	5.54
537.572	22.54
537.695	16.54
537.818	14.54
537.941	6.54
538.065	28.54
538.188	-5.46
538.311	17.54
538.434	24.54
538.558	12.54
538.681	44.54
538.804	34.54
538.927	27.54
539.05	13.54
539.173	13.54
539.297	14.54
539.42	32.54
539.543	26.54
539.666	41.54
539.789	18.54
539.913	8.54
540.036	36.54
540.159	15.54
540.282	15.54
540.405	12.54
540.528	27.54
540.651	37.54
540.775	16.54
540.898	21.54
541.021	34.54
541.144	23.54
541.267	31.54
541.39	0.54
541.513	24.54
541.637	31.54
541.76	15.54
541.883	34.54
542.006	29.54
542.129	53.54
542.252	35.54
542.375	44.54
542.498	20.54
542.622	56.54
542.745	43.54
542.868	48.54
542.991	50.54
543.114	45.54
543.237	61.54
543.36	69.54
543.483	53.54
543.606	65.54
543.73	102.54
543.853	77.54
543.976	91.54
544.099	111.54
544.222	115.54
544.345	107.54
544.468	169.54
544.591	214.54
544.714	268.54
544.837	346.54
544.96	463.54
545.083	674.54
545.206	1110.54
545.329	2461.54
545.453	10978.54
545.576	15263.54
545.699	15683.54
545.822	15683.54
545.945	15683.54
546.068	15683.54
546.191	15683.54
546.314	15683.54
546.437	15683.54
546.56	15683.54
546.683	15683.54
546.806	15683.54
546.929	15683.54
547.052	15683.54
547.175	15683.54
547.298	15683.54
547.421	15683.54
547.544	15683.54
547.667	3554.54
547.79	2533.54
547.913	1070.54
548.036	900.54
548.159	638.54
548.282	632.54
548.405	496.54
548.528	502.54
548.651	408.54
548.774	407.54
548.897	341.54
549.02	371.54
549.143	320.54
549.266	306.54
549.389	272.54
549.512	247.54
549.635	246.54
549.758	268.54
549.881	204.54
550.004	209.54
550.127	204.54
550.25	192.54
550.373	173.54
550.496	190.54
550.619	164.54
550.742	176.54
550.865	149.54
550.988	156.54
551.111	155.54
551.234	143.54
551.356	138.54
551.479	133.54
551.602	156.54
551.725	132.54
551.848	113.54
551.971	126.54
552.094	126.54
552.217	108.54
552.34	111.54
552.463	125.54
552.586	101.54
552.709	88.54
552.832	99.54
552.955	116.54
553.077	102.54
553.2	114.54
553.323	92.54
553.446	98.54
553.569	118.54
553.692	106.54
553.815	91.54
553.938	110.54
554.061	97.54
554.184	88.54
554.306	81.54
554.429	74.54
554.552	81.54
554.675	79.54
554.798	80.54
554.921	89.54
555.044	60.54
555.167	68.54
555.29	58.54
555.412	68.54
555.535	84.54
555.658	65.54
555.781	69.54
555.904	83.54
556.027	84.54
556.15	76.54
556.272	71.54
556.395	84.54
556.518	70.54
556.641	82.54
556.764	86.54
556.887	73.54
557.01	57.54
557.132	53.54
557.255	71.54
557.378	78.54
557.501	55.54
557.624	73.54
557.747	75.54
557.869	82.54
557.992	93.54
558.115	114.54
558.238	70.54
558.361	97.54
558.483	84.54
558.606	76.54
558.729	55.54
558.852	68.54
558.975	66.54
559.098	62.54
559.22	60.54
559.343	54.54
559.466	61.54
559.589	57.54
559.712	52.54
559.834	45.54
559.957	44.54
560.08	58.54
560.203	44.54
560.325	56.54
560.448	46.54
560.571	64.54
560.694	42.54
560.817	78.54
560.939	64.54
561.062	66.54
561.185	73.54
561.308	78.54
561.43	69.54
561.553	65.54
561.676	59.54
561.799	62.54
561.921	49.54
562.044	70.54
562.167	61.54
562.29	90.54
562.413	71.54
562.535	76.54
562.658	38.54
562.781	50.54
562.903	79.54
563.026	87.54
563.149	152.54
563.272	125.54
563.394	119.54
563.517	99.54
563.64	73.54
563.763	47.54
563.885	61.54
564.008	63.54
564.131	52.54
564.254	32.54
564.376	35.54
564.499	33.54
564.622	27.54
564.744	59.54
564.867	32.54
564.99	48.54
565.113	42.54
565.235	49.54
565.358	41.54
565.481	32.54
565.603	38.54
565.726	31.54
565.849	62.54
565.971	63.54
566.094	30.54
566.217	28.54
566.34	44.54
566.462	42.54
566.585	62.54
566.708	56.54
566.83	50.54
566.953	30.54
567.076	42.54
567.198	46.54
567.321	22.54
567.444	43.54
567.566	37.54
567.689	25.54
567.812	23.54
567.934	52.54
568.057	31.54
568.18	42.54
568.302	33.54
568.425	17.54
568.548	35.54
568.67	42.54
568.793	38.54
568.916	48.54
569.038	18.54
569.161	38.54
569.283	47.54
569.406	37.54
569.529	34.54
569.651	26.54
569.774	25.54
569.897	29.54
570.019	38.54
570.142	46.54
570.265	32.54
570.387	33.54
570.51	40.54
570.632	57.54
570.755	43.54
570.878	26.54
571	25.54
571.123	37.54
571.246	39.54
571.368	35.54
571.491	32.54
571.613	21.54
571.736	28.54
571.859	31.54
571.981	18.54
572.104	29.54
572.226	29.54
572.349	27.54
572.472	27.54
572.594	49.54
572.717	29.54
572.839	10.54
572.962	38.54
573.085	20.54
573.207	37.54
573.33	24.54
573.452	38.54
573.575	48.54
573.697	41.54
573.82	45.54
573.943	20.54
574.065	26.54
574.188	36.54
574.31	49.54
574.433	48.54
574.555	39.54
574.678	29.54
574.801	28.54
574.923	42.54
575.046	37.54
575.168	39.54
575.291	40.54
575.413	32.54
575.536	25.54
575.659	42.54
575.781	49.54
575.904	45.54
576.026	80.54
576.149	82.54
576.271	135.54
576.394	201.54
576.516	535.54
576.639	3606.54
576.761	10207.54
576.884	8837.54
577.007	8708.54
577.129	7940.54
577.252	3686.54
577.374	1302.54
577.497	497.54
577.619	288.54
577.742	161.54
577.864	152.54
577.987	116.54
578.109	116.54
578.232	135.54
578.354	142.54
578.477	200.54
578.599	408.54
578.722	1964.54
578.844	9153.54
578.967	9887.54
579.089	8782.54
579.212	9116.54
579.334	5219.54
579.457	1881.54
579.579	722.54
579.702	339.54
579.824	200.54
579.947	128.54
580.069	104.54
580.192	88.54
580.314	92.54
580.437	88.54
580.559	100.54
580.682	56.54
580.804	77.54
580.927	74.54
581.049	63.54
581.172	49.54
581.294	53.54
581.417	43.54
581.539	46.54
581.662	41.54
581.784	56.54
581.907	56.54
582.029	55.54
582.152	28.54
582.274	42.54
582.396	48.54
582.519	50.54
582.641	36.54
582.764	42.54
582.886	47.54
583.009	31.54
583.131	16.54
583.254	22.54
583.376	47.54
583.499	47.54
583.621	28.54
583.743	61.54
583.866	31.54
583.988	43.54
584.111	34.54
584.233	41.54
584.356	41.54
584.478	31.54
584.601	12.54
584.723	41.54
584.845	60.54
584.968	16.54
585.09	4.54
585.213	43.54
585.335	51.54
585.458	46.54
585.58	32.54
585.702	25.54
585.825	32.54
585.947	16.54
586.07	16.54
586.192	25.54
586.315	32.54
586.437	26.54
586.559	22.54
586.682	18.54
586.804	20.54
586.927	24.54
587.049	20.54
587.171	38.54
587.294	39.54
587.416	37.54
587.539	25.54
587.661	24.54
587.783	11.54
587.906	8.54
588.028	16.54
588.151	42.54
588.273	44.54
588.395	40.54
588.518	25.54
588.64	38.54
588.763	49.54
588.885	37.54
589.007	28.54
589.13	4.54
589.252	8.54
589.375	21.54
589.497	29.54
589.619	31.54
589.742	38.54
589.864	33.54
589.986	22.54
590.109	13.54
590.231	35.54
590.354	38.54
590.476	24.54
590.598	16.54
590.721	15.54
590.843	21.54
590.965	36.54
591.088	20.54
591.21	1.54
591.332	38.54
591.455	15.54
591.577	21.54
591.7	2.54
591.822	26.54
591.944	26.54
592.067	17.54
592.189	39.54
592.311	41.54
592.434	31.54
592.556	35.54
592.678	20.54
592.801	35.54
592.923	36.54
593.045	11.54
593.168	33.54
593.29	23.54
593.412	29.54
593.535	17.54
593.657	21.54
593.779	39.54
593.902	28.54
594.024	29.54
594.146	3.54
594.269	25.54
594.391	16.54
594.513	20.54
594.636	10.54
594.758	8.54
594.88	49.54
595.003	35.54
595.125	36.54
595.247	27.54
595.37	30.54
595.492	24.54
595.614	49.54
595.737	36.54
595.859	28.54
595.981	30.54
596.104	42.54
596.226	14.54
596.348	15.54
596.471	20.54
596.593	28.54
596.715	12.54
596.838	32.54
596.96	15.54
597.082	38.54
597.204	43.54
597.327	29.54
597.449	19.54
597.571	36.54
597.694	32.54
597.816	40.54
597.938	19.54
598.061	14.54
598.183	16.54
598.305	28.54
598.427	19.54
598.55	7.54
598.672	27.54
598.794	24.54
598.917	11.54
599.039	30.54
599.161	31.54
599.283	30.54
599.406	26.54
599.528	54.54
599.65	39.54
599.773	26.54
599.895	56.54
600.017	55.54
600.139	42.54
600.262	19.54
600.384	34.54
600.506	27.54
600.628	41.54
600.751	49.54
600.873	17.54
600.995	30.54
601.118	29.54
601.24	16.54
601.362	58.54
601.484	34.54
601.607	27.54
601.729	29.54
601.851	33.54
601.973	23.54
602.096	23.54
602.218	24.54
602.34	26.54
602.462	31.54
602.585	23.54
602.707	22.54
602.829	20.54
602.951	23.54
603.074	7.54
603.196	22.54
603.318	10.54
603.44	40.54
603.563	29.54
603.685	18.54
603.807	38.54
603.929	29.54
604.052	42.54
604.174	44.54
604.296	40.54
604.418	31.54
604.541	39.54
604.663	17.54
604.785	32.54
604.907	23.54
605.03	27.54
605.152	52.54
605.274	14.54
605.396	18.54
605.519	25.54
605.641	19.54
605.763	25.54
605.885	21.54
606.008	8.54
606.13	30.54
606.252	30.54
606.374	14.54
606.496	20.54
606.619	22.54
606.741	5.54
606.863	34.54
606.985	39.54
607.108	18.54
607.23	17.54
607.352	19.54
607.474	14.54
607.596	17.54
607.719	26.54
607.841	27.54
607.963	13.54
608.085	23.54
608.207	49.54
608.33	18.54
608.452	5.54
608.574	12.54
608.696	29.54
608.819	23.54
608.941	18.54
609.063	27.54
609.185	20.54
609.307	36.54
609.43	47.54
609.552	18.54
609.674	-0.46
609.796	18.54
609.918	32.54
610.041	33.54
610.163	33.54
610.285	26.54
610.407	17.54
610.529	21.54
610.652	20.54
610.774	7.54
610.896	19.54
611.018	21.54
611.14	30.54
611.263	17.54
611.385	24.54
611.507	12.54
611.629	20.54
611.751	29.54
611.873	35.54
611.996	10.54
612.118	33.54
612.24	14.54
612.362	32.54
612.484	47.54
612.607	42.54
612.729	47.54
612.851	41.54
612.973	37.54
613.095	24.54
613.218	13.54
613.34	30.54
613.462	27.54
613.584	31.54
613.706	27.54
613.828	48.54
613.951	0.54
614.073	18.54
614.195	-6.46
614.317	36.54
614.439	33.54
614.561	34.54
614.684	12.54
614.806	33.54
614.928	21.54
615.05	16.54
615.172	30.54
615.294	50.54
615.417	34.54
615.539	20.54
615.661	20.54
615.783	37.54
615.905	13.54
616.027	13.54
616.15	22.54
616.272	13.54
616.394	21.54
616.516	17.54
616.638	28.54
616.76	25.54
616.883	36.54
617.005	22.54
617.127	24.54
617.249	17.54
617.371	20.54
617.493	12.54
617.615	29.54
617.738	24.54
617.86	18.54
617.982	14.54
618.104	20.54
618.226	13.54
618.348	9.54
618.471	33.54
618.593	26.54
618.715	13.54
618.837	16.54
618.959	31.54
619.081	42.54
619.203	11.54
619.326	27.54
619.448	36.54
619.57	33.54
619.692	32.54
619.814	28.54
619.936	29.54
620.058	34.54
620.181	7.54
620.303	7.54
620.425	7.54
620.547	17.54
620.669	18.54
620.791	12.54
620.913	17.54
621.036	5.54
621.158	23.54
621.28	12.54
621.402	10.54
621.524	36.54
621.646	25.54
621.768	-5.46
621.891	4.54
622.013	28.54
622.135	2.54
622.257	-5.46
622.379	24.54
622.501	20.54
622.623	20.54
622.745	21.54
622.868	17.54
622.99	14.54
623.112	24.54
623.234	19.54
623.356	17.54
623.478	9.54
623.6	21.54
623.722	-0.46
623.845	11.54
623.967	16.54
624.089	20.54
624.211	28.54
624.333	15.54
624.455	20.54
624.577	10.54
624.699	33.54
624.822	17.54
624.944	15.54
625.066	9.54
625.188	-1.46
625.31	24.54
625.432	38.54
625.554	16.54
625.676	38.54
625.799	30.54
625.921	21.54
626.043	24.54
626.165	20.54
626.287	-0.46
626.409	12.54
626.531	9.54
626.653	17.54
626.775	16.54
626.898	36.54
627.02	46.54
627.142	39.54
627.264	24.54
627.386	17.54
627.508	20.54
627.63	14.54
627.752	31.54
627.874	10.54
627.997	13.54
628.119	13.54
628.241	37.54
628.363	29.54
628.485	24.54
628.607	23.54
628.729	28.54
628.851	8.54
628.973	23.54
629.096	4.54
629.218	16.54
629.34	30.54
629.462	0.54
629.584	2.54
629.706	14.54
629.828	26.54
629.95	9.54
630.072	23.54
630.195	12.54
630.317	26.54
630.439	12.54
630.561	30.54
630.683	24.54
630.805	25.54
630.927	28.54
631.049	24.54
631.171	0.54
631.293	23.54
631.416	16.54
631.538	24.54
631.66	30.54
631.782	44.54
631.904	27.54
632.026	10.54
632.148	30.54
632.27	14.54
632.392	13.54
632.514	20.54
632.637	20.54
632.759	17.54
632.881	24.54
633.003	30.54
633.125	9.54
633.247	14.54
633.369	21.54
633.491	19.54
633.613	47.54
633.735	11.54
633.858	25.54
633.98	17.54
634.102	-2.46
634.224	5.54
634.346	0.54
634.468	24.54
634.59	20.54
634.712	14.54
634.834	13.54
634.956	8.54
635.078	21.54
635.201	-10.46
635.323	8.54
635.445	16.54
635.567	-4.46
635.689	0.54
635.811	21.54
635.933	12.54
636.055	17.54
636.177	4.54
636.299	16.54
636.421	5.54
636.544	-0.46
636.666	14.54
636.788	19.54
636.91	21.54
637.032	23.54
637.154	8.54
637.276	47.54
637.398	32.54
637.52	25.54
637.642	3.54
637.764	16.54
637.887	19.54
638.009	15.54
638.131	15.54
638.253	23.54
638.375	16.54
638.497	18.54
638.619	4.54
638.741	6.54
638.863	-7.46
638.985	12.54
639.107	22.54
639.23	17.54
639.352	27.54
639.474	27.54
639.596	5.54
639.718	6.54
639.84	-0.46
639.962	14.54
640.084	43.54
640.206	26.54
640.328	18.54
640.45	21.54
640.573	25.54
640.695	12.54
640.817	4.54
640.939	32.54
641.061	7.54
641.183	20.54
641.305	10.54
641.427	1.54
641.549	9.54
641.671	34.54
641.793	18.54
641.915	38.54
642.038	11.54
642.16	17.54
642.282	18.54
642.404	1.54
642.526	15.54
642.648	8.54
642.77	9.54
642.892	-8.46
643.014	19.54
643.136	21.54
643.258	18.54
643.381	28.54
643.503	39.54
643.625	29.54
643.747	5.54
643.869	9.54
643.991	15.54
644.113	11.54
644.235	15.54
644.357	22.54
644.479	15.54
644.601	7.54
644.723	13.54
644.846	14.54
644.968	-2.46
645.09	18.54
645.212	-2.46
645.334	20.54
645.456	35.54
645.578	17.54
645.7	9.54
645.822	17.54
645.944	24.54
646.066	0.54
646.188	8.54
646.311	26.54
646.433	-12.46
646.555	23.54
646.677	27.54
646.799	9.54
646.921	32.54
647.043	20.54
647.165	-12.46
647.287	-2.46
647.409	17.54
647.531	23.54
647.654	0.54
647.776	8.54
647.898	22.54
648.02	20.54
648.142	1.54
648.264	5.54
648.386	12.54
648.508	8.54
648.63	2.54
648.752	24.54
648.874	1.54
648.997	4.54
649.119	16.54
649.241	27.54
649.363	36.54
649.485	11.54
649.607	15.54
649.729	5.54
649.851	6.54
649.973	24.54
650.095	8.54
650.217	-6.46
650.34	9.54
650.462	18.54
650.584	1.54
650.706	29.54
650.828	7.54
650.95	-6.46
651.072	20.54
651.194	6.54
651.316	-1.46
651.438	11.54
651.56	0.54
651.683	7.54
651.805	25.54
651.927	1.54
652.049	10.54
652.171	7.54
652.293	10.54
652.415	14.54
652.537	-8.46
652.659	16.54
652.781	20.54
652.903	23.54
653.026	46.54
653.148	13.54
653.27	7.54
653.392	28.54
653.514	4.54
653.636	28.54
653.758	13.54
653.88	-9.46
654.002	-1.46
654.124	4.54
654.247	5.54
654.369	22.54
654.491	-0.46
654.613	14.54
654.735	5.54
654.857	16.54
654.979	11.54
655.101	1.54
655.223	23.54
655.345	22.54
655.468	23.54
655.59	8.54
655.712	8.54
655.834	10.54
655.956	19.54
656.078	32.54
656.2	12.54
656.322	8.54
656.444	-16.46
656.566	32.54
656.689	14.54
656.811	17.54
656.933	21.54
657.055	7.54
657.177	-2.46
657.299	6.54
657.421	18.54
657.543	27.54
657.665	11.54
657.787	0.54
657.91	-9.46
658.032	7.54
658.154	13.54
658.276	8.54
658.398	-2.46
658.52	24.54
658.642	9.54
658.764	23.54
658.886	14.54
659.009	17.54
659.131	21.54
659.253	11.54
659.375	20.54
659.497	28.54
659.619	15.54
659.741	9.54
659.863	6.54
659.985	-1.46
660.108	10.54
660.23	5.54
660.352	24.54
660.474	29.54
660.596	14.54
660.718	9.54
660.84	14.54
660.962	14.54
661.084	8.54
661.207	-6.46
661.329	12.54
661.451	4.54
661.573	19.54
661.695	30.54
661.817	14.54
661.939	22.54
662.061	26.54
662.184	4.54
662.306	2.54
662.428	26.54
662.55	35.54
662.672	7.54
662.794	12.54
662.916	20.54
663.038	-10.46
663.161	18.54
663.283	36.54
663.405	6.54
663.527	5.54
663.649	30.54
663.771	27.54
663.893	0.54
664.015	12.54
664.138	6.54
664.26	5.54
664.382	28.54
664.504	22.54
664.626	11.54
664.748	17.54
664.87	-2.46
664.992	24.54
665.115	24.54
665.237	6.54
665.359	5.54
665.481	1.54
665.603	27.54
665.725	6.54
665.847	-8.46
665.97	-0.46
666.092	12.54
666.214	19.54
666.336	14.54
666.458	15.54
666.58	19.54
666.702	-0.46
666.825	2.54
666.947	3.54
667.069	14.54
667.191	-0.46
667.313	22.54
667.435	14.54
667.557	8.54
667.68	-8.46
667.802	-7.46
667.924	7.54
668.046	29.54
668.168	25.54
668.29	4.54
668.412	2.54
668.535	-3.46
668.657	12.54
668.779	16.54
668.901	13.54
669.023	28.54
669.145	5.54
669.267	13.54
669.39	7.54
669.512	8.54
669.634	4.54
669.756	-14.46
669.878	11.54
670	16.54
670.123	-4.46
670.245	28.54
670.367	12.54
670.489	9.54
670.611	-3.46
670.733	1.54
670.856	1.54
670.978	6.54
671.1	6.54
671.222	26.54
671.344	4.54
671.466	11.54
671.589	9.54
671.711	9.54
671.833	1.54
671.955	6.54
672.077	12.54
672.199	25.54
672.322	25.54
672.444	-2.46
672.566	13.54
672.688	4.54
672.81	8.54
672.932	16.54
673.055	-3.46
673.177	-2.46
673.299	7.54
673.421	0.54
673.543	14.54
673.665	17.54
673.788	31.54
673.91	-2.46
674.032	-7.46
674.154	13.54
674.276	17.54
674.399	15.54
674.521	3.54
674.643	9.54
674.765	9.54
674.887	16.54
675.009	4.54
675.132	16.54
675.254	11.54
675.376	27.54
675.498	16.54
675.62	20.54
675.743	15.54
675.865	35.54
675.987	4.54
676.109	14.54
676.231	13.54
676.354	32.54
676.476	14.54
676.598	27.54
676.72	16.54
676.842	10.54
676.965	5.54
677.087	15.54
677.209	11.54
677.331	-1.46
677.453	3.54
677.576	-0.46
677.698	9.54
677.82	12.54
677.942	9.54
678.064	22.54
678.187	21.54
678.309	12.54
678.431	4.54
678.553	5.54
678.675	18.54
678.798	14.54
678.92	21.54
679.042	5.54
679.164	12.54
679.286	19.54
679.409	2.54
679.531	6.54
679.653	14.54
679.775	9.54
679.898	5.54
680.02	6.54
680.142	21.54
680.264	2.54
680.386	1.54
680.509	27.54
680.631	17.54
680.753	10.54
680.875	-1.46
680.998	7.54
681.12	-0.46
681.242	13.54
681.364	-9.46
681.486	1.54
681.609	8.54
681.731	6.54
681.853	10.54
681.975	23.54
682.098	32.54
682.22	32.54
682.342	13.54
682.464	23.54
682.587	13.54
682.709	15.54
682.831	11.54
682.953	-10.46
683.076	8.54
683.198	6.54
683.32	13.54
683.442	18.54
683.565	23.54
683.687	1.54
683.809	-7.46
683.931	-5.46
684.054	15.54
684.176	8.54
684.298	32.54
684.42	9.54
684.543	1.54
684.665	14.54
684.787	4.54
684.909	-7.46
685.032	19.54
685.154	-9.46
685.276	17.54
685.398	9.54
685.521	6.54
685.643	4.54
685.765	16.54
685.887	6.54
686.01	9.54
686.132	-4.46
686.254	10.54
686.377	0.54
686.499	4.54
686.621	16.54
686.743	10.54
686.866	24.54
686.988	38.54
687.11	34.54
687.232	-3.46
687.355	-23.46
687.477	-0.46
687.599	14.54
687.722	4.54
687.844	21.54
687.966	14.54
688.088	-2.46
688.211	28.54
688.333	38.54
688.455	28.54
688.578	19.54
688.7	23.54
688.822	20.54
688.944	6.54
689.067	48.54
689.189	6.54
689.311	-0.46
689.434	11.54
689.556	21.54
689.678	16.54
689.801	-6.46
689.923	16.54
690.045	36.54
690.167	29.54
690.29	34.54
690.412	15.54
690.534	24.54
690.657	6.54
690.779	12.54
690.901	26.54
691.024	22.54
691.146	8.54
691.268	-0.46
691.391	24.54
691.513	0.54
691.635	24.54
691.758	26.54
691.88	25.54
692.002	0.54
692.125	-3.46
692.247	8.54
692.369	15.54
692.492	1.54
692.614	5.54
692.736	1.54
692.859	2.54
692.981	2.54
693.103	15.54
693.226	5.54
693.348	42.54
693.47	12.54
693.593	27.54
693.715	39.54
693.837	30.54
693.96	-4.46
694.082	0.54
694.204	7.54
694.327	17.54
694.449	0.54
694.571	10.54
694.694	20.54
694.816	22.54
694.938	-0.46
695.061	7.54
695.183	11.54
695.305	8.54
695.428	22.54
695.55	-3.46
695.672	-0.46
695.795	16.54
695.917	26.54
696.04	16.54
696.162	0.54
696.284	9.54
696.407	5.54
696.529	10.54
696.651	45.54
696.774	14.54
696.896	9.54
697.019	18.54
697.141	16.54
697.263	2.54
697.386	-10.46
697.508	18.54
697.63	25.54
697.753	12.54
697.875	2.54
697.998	6.54
698.12	8.54
698.242	16.54
698.365	19.54
698.487	17.54
698.61	14.54
698.732	9.54
698.854	22.54
698.977	17.54
699.099	19.54
699.221	8.54
699.344	-7.46
699.466	13.54
699.589	16.54
699.711	-7.46
699.834	27.54
699.956	17.54
700.078	22.54
700.201	12.54
700.323	15.54
700.446	12.54
700.568	2.54
700.69	13.54
700.813	27.54
700.935	17.54
701.058	16.54
701.18	3.54
701.302	4.54
701.425	-2.46
701.547	11.54
701.67	5.54
701.792	18.54
701.915	-3.46
702.037	8.54
702.159	13.54
702.282	15.54
702.404	14.54
702.527	20.54
702.649	35.54
702.772	24.54
702.894	-2.46
703.017	29.54
703.139	32.54
703.261	22.54
703.384	8.54
703.506	-5.46
703.629	11.54
703.751	12.54
703.874	2.54
703.996	-2.46
704.119	-4.46
704.241	14.54
704.364	0.54
704.486	13.54
704.608	13.54
704.731	-4.46
704.853	17.54
704.976	5.54
705.098	5.54
705.221	10.54
705.343	13.54
705.466	24.54
705.588	18.54
705.711	12.54
705.833	8.54
705.956	12.54
706.078	4.54
706.201	18.54
706.323	22.54
706.446	2.54
