Data from LowRes_mercury_15_20_11_07_2024_HR4C61881__92__15-23-41-470.txt Node

Date: Thu Nov 07 15:23:41 EST 2024
User: crc00042
Spectrometer: HR4C6188
Trigger mode: 4
Integration Time (sec): 1.000000E-1
Scans to average: 1
Electric dark correction enabled: true
Nonlinearity correction enabled: false
Boxcar width: 0
XAxis mode: Wavelengths
Number of Pixels in Spectrum: 3648
>>>>>Begin Spectral Data<<<<<
245.66	-54.54
245.797	-54.54
245.934	-54.54
246.071	-75.54
246.208	21.46
246.344	6.46
246.481	10.46
246.618	-18.54
246.755	24.46
246.892	-13.54
247.029	-6.54
247.165	-7.54
247.302	10.46
247.439	9.46
247.576	12.46
247.713	-22.54
247.849	9.46
247.986	-14.54
248.123	0.46
248.26	-8.54
248.396	16.46
248.533	-8.54
248.67	5.46
248.806	23.46
248.943	0.46
249.08	-6.54
249.216	21.46
249.353	-10.54
249.49	-1.54
249.626	12.46
249.763	8.46
249.9	-10.54
250.036	4.46
250.173	-2.54
250.309	10.46
250.446	8.46
250.582	6.46
250.719	-6.54
250.856	-5.54
250.992	5.46
251.129	1.46
251.265	-4.54
251.402	-0.54
251.538	-21.54
251.675	26.46
251.811	19.46
251.948	10.46
252.084	27.46
252.221	9.46
252.357	-3.54
252.493	14.46
252.63	7.46
252.766	19.46
252.903	7.46
253.039	2.46
253.175	1.46
253.312	9.46
253.448	3.46
253.585	-27.54
253.721	6.46
253.857	-0.54
253.994	7.46
254.13	-0.54
254.266	7.46
254.403	10.46
254.539	16.46
254.675	-1.54
254.811	5.46
254.948	24.46
255.084	-1.54
255.22	-0.54
255.356	-11.54
255.493	18.46
255.629	27.46
255.765	12.46
255.901	-4.54
256.037	11.46
256.174	1.46
256.31	2.46
256.446	5.46
256.582	-2.54
256.718	5.46
256.854	21.46
256.991	13.46
257.127	19.46
257.263	-8.54
257.399	10.46
257.535	7.46
257.671	18.46
257.807	-8.54
257.943	-18.54
258.079	-26.54
258.215	-14.54
258.351	14.46
258.487	22.46
258.623	21.46
258.759	1.46
258.895	3.46
259.031	2.46
259.167	-19.54
259.303	28.46
259.439	-7.54
259.575	-1.54
259.711	-0.54
259.847	6.46
259.983	-3.54
260.119	-5.54
260.255	0.46
260.391	19.46
260.527	13.46
260.663	23.46
260.799	27.46
260.934	14.46
261.07	-7.54
261.206	-14.54
261.342	-3.54
261.478	-0.54
261.614	3.46
261.749	13.46
261.885	2.46
262.021	5.46
262.157	23.46
262.293	22.46
262.428	-12.54
262.564	-15.54
262.7	12.46
262.836	22.46
262.971	21.46
263.107	11.46
263.243	21.46
263.378	3.46
263.514	-10.54
263.65	10.46
263.785	-1.54
263.921	-3.54
264.057	5.46
264.192	5.46
264.328	18.46
264.464	0.46
264.599	5.46
264.735	6.46
264.871	-14.54
265.006	-3.54
265.142	2.46
265.277	-1.54
265.413	21.46
265.548	19.46
265.684	-0.54
265.819	-15.54
265.955	-13.54
266.091	3.46
266.226	7.46
266.362	8.46
266.497	16.46
266.633	2.46
266.768	5.46
266.903	17.46
267.039	6.46
267.174	29.46
267.31	-7.54
267.445	-21.54
267.581	5.46
267.716	6.46
267.851	11.46
267.987	24.46
268.122	10.46
268.258	4.46
268.393	9.46
268.528	16.46
268.664	-4.54
268.799	-6.54
268.934	-9.54
269.07	-15.54
269.205	-4.54
269.34	31.46
269.476	6.46
269.611	-11.54
269.746	18.46
269.881	10.46
270.017	15.46
270.152	10.46
270.287	5.46
270.422	9.46
270.558	-13.54
270.693	13.46
270.828	5.46
270.963	7.46
271.098	-7.54
271.234	16.46
271.369	17.46
271.504	-5.54
271.639	-14.54
271.774	-11.54
271.909	-3.54
272.045	-18.54
272.18	-6.54
272.315	-4.54
272.45	7.46
272.585	4.46
272.72	-2.54
272.855	-17.54
272.99	30.46
273.125	-1.54
273.26	-6.54
273.395	0.46
273.53	15.46
273.665	1.46
273.8	0.46
273.935	4.46
274.07	13.46
274.205	26.46
274.34	-7.54
274.475	-6.54
274.61	13.46
274.745	6.46
274.88	0.46
275.015	-23.54
275.15	-1.54
275.285	7.46
275.42	7.46
275.555	5.46
275.69	1.46
275.825	0.46
275.959	16.46
276.094	-9.54
276.229	-14.54
276.364	-6.54
276.499	3.46
276.634	4.46
276.768	-5.54
276.903	-12.54
277.038	12.46
277.173	-2.54
277.308	-0.54
277.442	5.46
277.577	-9.54
277.712	4.46
277.847	0.46
277.981	7.46
278.116	-27.54
278.251	16.46
278.386	9.46
278.52	5.46
278.655	-9.54
278.79	8.46
278.924	8.46
279.059	2.46
279.194	-13.54
279.328	32.46
279.463	1.46
279.598	5.46
279.732	16.46
279.867	25.46
280.001	9.46
280.136	-8.54
280.271	13.46
280.405	13.46
280.54	1.46
280.674	-15.54
280.809	20.46
280.943	1.46
281.078	2.46
281.213	32.46
281.347	0.46
281.482	14.46
281.616	-10.54
281.751	-2.54
281.885	-12.54
282.02	2.46
282.154	7.46
282.288	-11.54
282.423	-14.54
282.557	-13.54
282.692	1.46
282.826	-19.54
282.961	6.46
283.095	-4.54
283.229	-14.54
283.364	-1.54
283.498	18.46
283.633	5.46
283.767	6.46
283.901	5.46
284.036	2.46
284.17	-4.54
284.304	-4.54
284.439	4.46
284.573	-0.54
284.707	20.46
284.842	13.46
284.976	17.46
285.11	-2.54
285.244	9.46
285.379	28.46
285.513	-6.54
285.647	-4.54
285.781	22.46
285.916	18.46
286.05	5.46
286.184	21.46
286.318	16.46
286.453	-10.54
286.587	-26.54
286.721	12.46
286.855	11.46
286.989	10.46
287.123	-7.54
287.258	-9.54
287.392	10.46
287.526	19.46
287.66	2.46
287.794	-6.54
287.928	-6.54
288.062	13.46
288.196	11.46
288.33	0.46
288.464	22.46
288.598	10.46
288.733	0.46
288.867	18.46
289.001	15.46
289.135	5.46
289.269	-9.54
289.403	3.46
289.537	12.46
289.671	16.46
289.805	-16.54
289.939	10.46
290.073	-0.54
290.207	22.46
290.34	9.46
290.474	4.46
290.608	-11.54
290.742	1.46
290.876	8.46
291.01	14.46
291.144	24.46
291.278	10.46
291.412	-1.54
291.546	-8.54
291.679	-6.54
291.813	4.46
291.947	-2.54
292.081	-1.54
292.215	1.46
292.349	31.46
292.482	-1.54
292.616	17.46
292.75	1.46
292.884	0.46
293.018	8.46
293.151	-22.54
293.285	-5.54
293.419	-13.54
293.553	10.46
293.686	1.46
293.82	12.46
293.954	19.46
294.088	28.46
294.221	-3.54
294.355	-33.54
294.489	-7.54
294.622	-6.54
294.756	-0.54
294.89	0.46
295.023	2.46
295.157	6.46
295.291	15.46
295.424	10.46
295.558	5.46
295.691	12.46
295.825	-1.54
295.959	-9.54
296.092	-0.54
296.226	2.46
296.359	5.46
296.493	3.46
296.627	8.46
296.76	0.46
296.894	-14.54
297.027	0.46
297.161	2.46
297.294	-19.54
297.428	-14.54
297.561	27.46
297.695	6.46
297.828	3.46
297.962	-5.54
298.095	-32.54
298.229	4.46
298.362	-3.54
298.495	0.46
298.629	-14.54
298.762	2.46
298.896	-1.54
299.029	-7.54
299.162	6.46
299.296	8.46
299.429	12.46
299.563	7.46
299.696	9.46
299.829	18.46
299.963	13.46
300.096	11.46
300.229	-12.54
300.363	-6.54
300.496	16.46
300.629	-10.54
300.763	-3.54
300.896	-3.54
301.029	1.46
301.162	5.46
301.296	-19.54
301.429	12.46
301.562	-13.54
301.695	9.46
301.829	9.46
301.962	18.46
302.095	-8.54
302.228	-8.54
302.362	-10.54
302.495	-24.54
302.628	0.46
302.761	8.46
302.894	6.46
303.027	12.46
303.161	-7.54
303.294	-18.54
303.427	10.46
303.56	-10.54
303.693	-24.54
303.826	-2.54
303.959	-0.54
304.092	7.46
304.225	-5.54
304.359	12.46
304.492	9.46
304.625	-7.54
304.758	14.46
304.891	-8.54
305.024	1.46
305.157	-13.54
305.29	-10.54
305.423	-1.54
305.556	11.46
305.689	15.46
305.822	-2.54
305.955	23.46
306.088	-12.54
306.221	6.46
306.354	-7.54
306.487	-13.54
306.62	-20.54
306.752	-1.54
306.885	9.46
307.018	3.46
307.151	15.46
307.284	22.46
307.417	-3.54
307.55	13.46
307.683	5.46
307.816	19.46
307.948	9.46
308.081	22.46
308.214	5.46
308.347	25.46
308.48	1.46
308.613	1.46
308.745	4.46
308.878	10.46
309.011	-4.54
309.144	12.46
309.277	9.46
309.409	29.46
309.542	12.46
309.675	15.46
309.808	-4.54
309.94	11.46
310.073	-6.54
310.206	-8.54
310.339	9.46
310.471	1.46
310.604	22.46
310.737	1.46
310.869	11.46
311.002	10.46
311.135	6.46
311.267	-19.54
311.4	-0.54
311.533	25.46
311.665	2.46
311.798	-0.54
311.93	25.46
312.063	45.46
312.196	45.46
312.328	91.46
312.461	44.46
312.593	16.46
312.726	42.46
312.859	104.46
312.991	160.46
313.124	46.46
313.256	31.46
313.389	20.46
313.521	-6.54
313.654	7.46
313.786	-10.54
313.919	-5.54
314.051	24.46
314.184	18.46
314.316	9.46
314.449	-12.54
314.581	2.46
314.714	-2.54
314.846	8.46
314.978	-1.54
315.111	8.46
315.243	-0.54
315.376	23.46
315.508	12.46
315.641	-1.54
315.773	20.46
315.905	11.46
316.038	1.46
316.17	-2.54
316.302	17.46
316.435	-5.54
316.567	-6.54
316.699	14.46
316.832	-31.54
316.964	-13.54
317.096	-13.54
317.229	-15.54
317.361	-11.54
317.493	-2.54
317.625	-10.54
317.758	-6.54
317.89	24.46
318.022	-6.54
318.155	3.46
318.287	9.46
318.419	1.46
318.551	18.46
318.683	24.46
318.816	-9.54
318.948	-8.54
319.08	-12.54
319.212	-4.54
319.344	17.46
319.477	4.46
319.609	24.46
319.741	11.46
319.873	5.46
320.005	-0.54
320.137	-6.54
320.269	23.46
320.401	0.46
320.534	-2.54
320.666	-1.54
320.798	12.46
320.93	9.46
321.062	11.46
321.194	4.46
321.326	7.46
321.458	15.46
321.59	7.46
321.722	-0.54
321.854	-4.54
321.986	4.46
322.118	8.46
322.25	-6.54
322.382	14.46
322.514	-1.54
322.646	-2.54
322.778	12.46
322.91	-10.54
323.042	9.46
323.174	22.46
323.306	15.46
323.438	-10.54
323.57	-0.54
323.702	9.46
323.834	4.46
323.966	11.46
324.097	-9.54
324.229	16.46
324.361	17.46
324.493	14.46
324.625	5.46
324.757	7.46
324.889	-2.54
325.021	24.46
325.152	35.46
325.284	20.46
325.416	5.46
325.548	10.46
325.68	7.46
325.811	24.46
325.943	22.46
326.075	-9.54
326.207	0.46
326.339	9.46
326.47	4.46
326.602	-3.54
326.734	13.46
326.866	21.46
326.997	-9.54
327.129	-15.54
327.261	-15.54
327.392	1.46
327.524	12.46
327.656	11.46
327.787	10.46
327.919	23.46
328.051	27.46
328.182	5.46
328.314	26.46
328.446	2.46
328.577	11.46
328.709	-1.54
328.841	1.46
328.972	-12.54
329.104	10.46
329.235	-8.54
329.367	-8.54
329.499	-9.54
329.63	-7.54
329.762	2.46
329.893	-6.54
330.025	2.46
330.156	-3.54
330.288	-1.54
330.419	1.46
330.551	9.46
330.683	8.46
330.814	-4.54
330.946	-1.54
331.077	-2.54
331.208	10.46
331.34	1.46
331.471	4.46
331.603	5.46
331.734	1.46
331.866	9.46
331.997	10.46
332.129	10.46
332.26	15.46
332.392	22.46
332.523	19.46
332.654	-2.54
332.786	6.46
332.917	-12.54
333.048	22.46
333.18	26.46
333.311	-13.54
333.443	-4.54
333.574	11.46
333.705	40.46
333.837	27.46
333.968	120.46
334.099	230.46
334.231	201.46
334.362	57.46
334.493	25.46
334.624	6.46
334.756	20.46
334.887	12.46
335.018	21.46
335.15	10.46
335.281	-7.54
335.412	13.46
335.543	17.46
335.675	10.46
335.806	12.46
335.937	2.46
336.068	21.46
336.199	21.46
336.331	18.46
336.462	11.46
336.593	19.46
336.724	4.46
336.855	-2.54
336.986	18.46
337.118	39.46
337.249	17.46
337.38	18.46
337.511	10.46
337.642	19.46
337.773	12.46
337.904	-6.54
338.035	29.46
338.166	1.46
338.298	14.46
338.429	-9.54
338.56	21.46
338.691	19.46
338.822	17.46
338.953	15.46
339.084	13.46
339.215	12.46
339.346	13.46
339.477	15.46
339.608	30.46
339.739	8.46
339.87	12.46
340.001	4.46
340.132	22.46
340.263	21.46
340.394	20.46
340.525	17.46
340.656	10.46
340.787	-0.54
340.918	23.46
341.049	7.46
341.179	2.46
341.31	16.46
341.441	25.46
341.572	29.46
341.703	5.46
341.834	-15.54
341.965	6.46
342.096	14.46
342.227	23.46
342.357	2.46
342.488	27.46
342.619	22.46
342.75	21.46
342.881	15.46
343.012	34.46
343.142	24.46
343.273	25.46
343.404	25.46
343.535	48.46
343.666	41.46
343.796	23.46
343.927	14.46
344.058	31.46
344.189	27.46
344.319	30.46
344.45	25.46
344.581	28.46
344.712	6.46
344.842	29.46
344.973	16.46
345.104	34.46
345.234	26.46
345.365	18.46
345.496	14.46
345.626	21.46
345.757	28.46
345.888	3.46
346.018	17.46
346.149	26.46
346.28	46.46
346.41	21.46
346.541	40.46
346.672	23.46
346.802	23.46
346.933	37.46
347.063	9.46
347.194	18.46
347.325	22.46
347.455	40.46
347.586	33.46
347.716	32.46
347.847	36.46
347.977	38.46
348.108	49.46
348.238	41.46
348.369	35.46
348.499	41.46
348.63	38.46
348.76	52.46
348.891	41.46
349.021	54.46
349.152	62.46
349.282	69.46
349.413	50.46
349.543	48.46
349.674	17.46
349.804	23.46
349.935	26.46
350.065	19.46
350.196	16.46
350.326	36.46
350.456	17.46
350.587	37.46
350.717	26.46
350.848	26.46
350.978	34.46
351.108	20.46
351.239	28.46
351.369	8.46
351.499	32.46
351.63	32.46
351.76	24.46
351.89	27.46
352.021	27.46
352.151	12.46
352.281	19.46
352.412	33.46
352.542	30.46
352.672	17.46
352.803	24.46
352.933	28.46
353.063	11.46
353.193	22.46
353.324	28.46
353.454	46.46
353.584	51.46
353.714	13.46
353.845	31.46
353.975	20.46
354.105	25.46
354.235	16.46
354.365	45.46
354.496	29.46
354.626	29.46
354.756	20.46
354.886	18.46
355.016	17.46
355.146	0.46
355.277	17.46
355.407	10.46
355.537	22.46
355.667	29.46
355.797	11.46
355.927	19.46
356.057	25.46
356.187	3.46
356.318	12.46
356.448	28.46
356.578	31.46
356.708	32.46
356.838	27.46
356.968	22.46
357.098	30.46
357.228	36.46
357.358	17.46
357.488	21.46
357.618	61.46
357.748	42.46
357.878	25.46
358.008	13.46
358.138	11.46
358.268	13.46
358.398	21.46
358.528	11.46
358.658	25.46
358.788	32.46
358.918	38.46
359.048	38.46
359.178	47.46
359.308	26.46
359.438	39.46
359.568	33.46
359.698	34.46
359.827	40.46
359.957	22.46
360.087	34.46
360.217	19.46
360.347	31.46
360.477	31.46
360.607	14.46
360.737	29.46
360.866	32.46
360.996	15.46
361.126	21.46
361.256	50.46
361.386	41.46
361.516	46.46
361.645	30.46
361.775	36.46
361.905	14.46
362.035	45.46
362.165	40.46
362.294	46.46
362.424	66.46
362.554	51.46
362.684	48.46
362.813	50.46
362.943	46.46
363.073	47.46
363.203	64.46
363.332	73.46
363.462	72.46
363.592	99.46
363.721	101.46
363.851	155.46
363.981	209.46
364.111	239.46
364.24	337.46
364.37	482.46
364.5	856.46
364.629	1813.46
364.759	3872.46
364.888	6285.46
365.018	9304.46
365.148	14797.46
365.277	12934.46
365.407	4718.46
365.537	3115.46
365.666	4006.46
365.796	1820.46
365.925	800.46
366.055	779.46
366.184	1008.46
366.314	1390.46
366.444	2481.46
366.573	2088.46
366.703	643.46
366.832	224.46
366.962	117.46
367.091	95.46
367.221	75.46
367.35	57.46
367.48	77.46
367.609	36.46
367.739	44.46
367.868	44.46
367.998	53.46
368.127	51.46
368.257	46.46
368.386	56.46
368.516	55.46
368.645	27.46
368.775	49.46
368.904	38.46
369.033	27.46
369.163	18.46
369.292	54.46
369.422	37.46
369.551	34.46
369.68	34.46
369.81	37.46
369.939	15.46
370.069	62.46
370.198	29.46
370.327	2.46
370.457	46.46
370.586	48.46
370.715	35.46
370.845	44.46
370.974	41.46
371.103	35.46
371.233	44.46
371.362	55.46
371.491	48.46
371.621	58.46
371.75	43.46
371.879	32.46
372.008	51.46
372.138	49.46
372.267	61.46
372.396	58.46
372.525	42.46
372.655	17.46
372.784	29.46
372.913	20.46
373.042	39.46
373.172	30.46
373.301	6.46
373.43	17.46
373.559	25.46
373.688	46.46
373.818	41.46
373.947	50.46
374.076	27.46
374.205	28.46
374.334	18.46
374.463	2.46
374.593	28.46
374.722	26.46
374.851	36.46
374.98	-7.54
375.109	19.46
375.238	20.46
375.367	27.46
375.496	11.46
375.625	17.46
375.755	25.46
375.884	45.46
376.013	22.46
376.142	-2.54
376.271	18.46
376.4	29.46
376.529	21.46
376.658	25.46
376.787	21.46
376.916	26.46
377.045	11.46
377.174	33.46
377.303	11.46
377.432	45.46
377.561	38.46
377.69	13.46
377.819	39.46
377.948	20.46
378.077	11.46
378.206	-9.54
378.335	8.46
378.464	25.46
378.593	36.46
378.722	26.46
378.851	22.46
378.98	40.46
379.108	-4.54
379.237	-9.54
379.366	29.46
379.495	10.46
379.624	27.46
379.753	24.46
379.882	22.46
380.011	6.46
380.14	0.46
380.268	26.46
380.397	27.46
380.526	37.46
380.655	24.46
380.784	9.46
380.913	6.46
381.041	2.46
381.17	13.46
381.299	-1.54
381.428	24.46
381.557	16.46
381.685	12.46
381.814	23.46
381.943	24.46
382.072	5.46
382.2	18.46
382.329	16.46
382.458	10.46
382.587	43.46
382.715	39.46
382.844	28.46
382.973	36.46
383.102	28.46
383.23	20.46
383.359	18.46
383.488	18.46
383.616	17.46
383.745	1.46
383.874	0.46
384.003	-6.54
384.131	30.46
384.26	21.46
384.389	9.46
384.517	2.46
384.646	8.46
384.774	6.46
384.903	25.46
385.032	26.46
385.16	27.46
385.289	28.46
385.418	32.46
385.546	26.46
385.675	31.46
385.803	30.46
385.932	13.46
386.06	22.46
386.189	26.46
386.318	17.46
386.446	20.46
386.575	33.46
386.703	31.46
386.832	19.46
386.96	19.46
387.089	30.46
387.217	23.46
387.346	18.46
387.474	11.46
387.603	28.46
387.731	23.46
387.86	25.46
387.988	4.46
388.117	30.46
388.245	31.46
388.374	31.46
388.502	38.46
388.631	27.46
388.759	13.46
388.888	37.46
389.016	21.46
389.144	25.46
389.273	11.46
389.401	13.46
389.53	30.46
389.658	46.46
389.786	19.46
389.915	22.46
390.043	12.46
390.172	33.46
390.3	50.46
390.428	31.46
390.557	13.46
390.685	44.46
390.813	55.46
390.942	54.46
391.07	27.46
391.198	14.46
391.327	38.46
391.455	18.46
391.583	43.46
391.712	30.46
391.84	11.46
391.968	14.46
392.096	8.46
392.225	10.46
392.353	16.46
392.481	14.46
392.609	41.46
392.738	35.46
392.866	32.46
392.994	14.46
393.122	32.46
393.251	20.46
393.379	17.46
393.507	12.46
393.635	10.46
393.764	24.46
393.892	36.46
394.02	19.46
394.148	34.46
394.276	31.46
394.404	41.46
394.533	37.46
394.661	14.46
394.789	44.46
394.917	32.46
395.045	15.46
395.173	14.46
395.302	24.46
395.43	25.46
395.558	40.46
395.686	28.46
395.814	31.46
395.942	36.46
396.07	4.46
396.198	32.46
396.326	17.46
396.454	35.46
396.582	32.46
396.711	32.46
396.839	36.46
396.967	22.46
397.095	14.46
397.223	25.46
397.351	39.46
397.479	45.46
397.607	25.46
397.735	49.46
397.863	42.46
397.991	53.46
398.119	25.46
398.247	33.46
398.375	48.46
398.503	47.46
398.631	50.46
398.759	58.46
398.887	64.46
399.015	54.46
399.143	48.46
399.271	55.46
399.399	74.46
399.526	76.46
399.654	77.46
399.782	79.46
399.91	87.46
400.038	89.46
400.166	79.46
400.294	83.46
400.422	89.46
400.55	107.46
400.678	98.46
400.805	112.46
400.933	111.46
401.061	110.46
401.189	145.46
401.317	159.46
401.445	108.46
401.573	76.46
401.7	57.46
401.828	38.46
401.956	62.46
402.084	55.46
402.212	43.46
402.34	26.46
402.467	39.46
402.595	56.46
402.723	41.46
402.851	54.46
402.978	56.46
403.106	74.46
403.234	84.46
403.362	126.46
403.489	131.46
403.617	168.46
403.745	229.46
403.873	278.46
404	542.46
404.128	1438.46
404.256	3929.46
404.384	5117.46
404.511	5458.46
404.639	7247.46
404.767	11478.46
404.894	14610.46
405.022	4882.46
405.15	1302.46
405.277	420.46
405.405	240.46
405.533	136.46
405.66	107.46
405.788	59.46
405.916	67.46
406.043	41.46
406.171	65.46
406.299	59.46
406.426	50.46
406.554	50.46
406.681	51.46
406.809	49.46
406.937	54.46
407.064	64.46
407.192	140.46
407.319	304.46
407.447	535.46
407.574	530.46
407.702	591.46
407.83	837.46
407.957	1567.46
408.085	955.46
408.212	288.46
408.34	112.46
408.467	50.46
408.595	39.46
408.722	62.46
408.85	64.46
408.977	37.46
409.105	41.46
409.232	47.46
409.36	33.46
409.487	43.46
409.615	42.46
409.742	30.46
409.87	29.46
409.997	59.46
410.125	25.46
410.252	40.46
410.379	17.46
410.507	36.46
410.634	7.46
410.762	22.46
410.889	24.46
411.017	44.46
411.144	47.46
411.271	12.46
411.399	23.46
411.526	27.46
411.653	43.46
411.781	40.46
411.908	32.46
412.036	28.46
412.163	54.46
412.29	34.46
412.418	28.46
412.545	35.46
412.672	32.46
412.8	54.46
412.927	30.46
413.054	25.46
413.182	41.46
413.309	47.46
413.436	10.46
413.564	47.46
413.691	44.46
413.818	46.46
413.945	11.46
414.073	30.46
414.2	46.46
414.327	27.46
414.454	38.46
414.582	45.46
414.709	18.46
414.836	16.46
414.963	42.46
415.091	35.46
415.218	20.46
415.345	24.46
415.472	35.46
415.6	37.46
415.727	30.46
415.854	23.46
415.981	23.46
416.108	30.46
416.236	32.46
416.363	42.46
416.49	24.46
416.617	38.46
416.744	44.46
416.871	20.46
416.998	28.46
417.126	24.46
417.253	28.46
417.38	32.46
417.507	30.46
417.634	28.46
417.761	48.46
417.888	26.46
418.015	38.46
418.143	30.46
418.27	57.46
418.397	28.46
418.524	45.46
418.651	38.46
418.778	48.46
418.905	46.46
419.032	38.46
419.159	40.46
419.286	58.46
419.413	42.46
419.54	74.46
419.667	46.46
419.794	45.46
419.921	56.46
420.048	48.46
420.175	68.46
420.302	63.46
420.429	69.46
420.556	61.46
420.683	43.46
420.81	64.46
420.937	68.46
421.064	82.46
421.191	73.46
421.318	89.46
421.445	88.46
421.572	80.46
421.699	62.46
421.826	42.46
421.953	35.46
422.08	41.46
422.207	12.46
422.334	0.46
422.461	43.46
422.588	24.46
422.714	18.46
422.841	27.46
422.968	26.46
423.095	27.46
423.222	15.46
423.349	34.46
423.476	32.46
423.603	20.46
423.729	10.46
423.856	26.46
423.983	50.46
424.11	5.46
424.237	15.46
424.364	33.46
424.491	17.46
424.617	-6.54
424.744	16.46
424.871	18.46
424.998	0.46
425.125	8.46
425.251	21.46
425.378	21.46
425.505	26.46
425.632	15.46
425.758	23.46
425.885	38.46
426.012	49.46
426.139	37.46
426.266	15.46
426.392	35.46
426.519	27.46
426.646	17.46
426.772	32.46
426.899	18.46
427.026	25.46
427.153	31.46
427.279	44.46
427.406	23.46
427.533	-0.54
427.659	37.46
427.786	24.46
427.913	57.46
428.039	16.46
428.166	8.46
428.293	16.46
428.419	38.46
428.546	21.46
428.673	-7.54
428.799	21.46
428.926	32.46
429.053	45.46
429.179	30.46
429.306	38.46
429.433	41.46
429.559	56.46
429.686	29.46
429.812	26.46
429.939	12.46
430.066	31.46
430.192	31.46
430.319	23.46
430.445	41.46
430.572	30.46
430.699	24.46
430.825	18.46
430.952	30.46
431.078	24.46
431.205	26.46
431.331	30.46
431.458	44.46
431.584	31.46
431.711	44.46
431.837	23.46
431.964	25.46
432.09	24.46
432.217	14.46
432.343	21.46
432.47	46.46
432.596	27.46
432.723	-2.54
432.849	20.46
432.976	29.46
433.102	34.46
433.229	20.46
433.355	56.46
433.482	82.46
433.608	96.46
433.735	111.46
433.861	104.46
433.987	146.46
434.114	180.46
434.24	144.46
434.367	219.46
434.493	216.46
434.62	265.46
434.746	367.46
434.872	631.46
434.999	806.46
435.125	1744.46
435.252	5505.46
435.378	13414.46
435.504	15208.46
435.631	15410.46
435.757	15683.46
435.883	15683.46
436.01	15683.46
436.136	15683.46
436.262	15683.46
436.389	3457.46
436.515	1990.46
436.641	802.46
436.768	629.46
436.894	399.46
437.02	379.46
437.147	318.46
437.273	289.46
437.399	213.46
437.526	230.46
437.652	173.46
437.778	207.46
437.904	140.46
438.031	174.46
438.157	134.46
438.283	131.46
438.409	115.46
438.536	135.46
438.662	128.46
438.788	130.46
438.914	110.46
439.041	121.46
439.167	114.46
439.293	116.46
439.419	95.46
439.546	91.46
439.672	87.46
439.798	84.46
439.924	82.46
440.05	105.46
440.177	79.46
440.303	63.46
440.429	62.46
440.555	63.46
440.681	41.46
440.807	74.46
440.934	55.46
441.06	64.46
441.186	53.46
441.312	58.46
441.438	79.46
441.564	77.46
441.69	66.46
441.816	63.46
441.943	52.46
442.069	49.46
442.195	58.46
442.321	61.46
442.447	20.46
442.573	35.46
442.699	33.46
442.825	31.46
442.951	74.46
443.077	48.46
443.203	47.46
443.33	33.46
443.456	42.46
443.582	46.46
443.708	32.46
443.834	62.46
443.96	33.46
444.086	42.46
444.212	44.46
444.338	65.46
444.464	48.46
444.59	70.46
444.716	51.46
444.842	45.46
444.968	30.46
445.094	48.46
445.22	28.46
445.346	29.46
445.472	31.46
445.598	45.46
445.724	36.46
445.85	38.46
445.976	40.46
446.102	43.46
446.228	54.46
446.354	24.46
446.48	31.46
446.605	23.46
446.731	39.46
446.857	39.46
446.983	41.46
447.109	20.46
447.235	41.46
447.361	36.46
447.487	49.46
447.613	45.46
447.739	30.46
447.865	22.46
447.99	35.46
448.116	24.46
448.242	49.46
448.368	21.46
448.494	39.46
448.62	31.46
448.746	35.46
448.872	25.46
448.997	29.46
449.123	26.46
449.249	30.46
449.375	48.46
449.501	25.46
449.627	24.46
449.752	52.46
449.878	29.46
450.004	19.46
450.13	43.46
450.256	23.46
450.381	30.46
450.507	32.46
450.633	30.46
450.759	53.46
450.884	17.46
451.01	32.46
451.136	14.46
451.262	23.46
451.388	35.46
451.513	16.46
451.639	32.46
451.765	26.46
451.89	33.46
452.016	17.46
452.142	17.46
452.268	33.46
452.393	34.46
452.519	29.46
452.645	15.46
452.771	27.46
452.896	15.46
453.022	10.46
453.148	16.46
453.273	38.46
453.399	13.46
453.525	5.46
453.65	19.46
453.776	37.46
453.902	34.46
454.027	49.46
454.153	44.46
454.279	34.46
454.404	28.46
454.53	33.46
454.656	35.46
454.781	18.46
454.907	20.46
455.032	12.46
455.158	37.46
455.284	35.46
455.409	23.46
455.535	24.46
455.66	39.46
455.786	39.46
455.912	37.46
456.037	18.46
456.163	11.46
456.288	32.46
456.414	29.46
456.539	17.46
456.665	23.46
456.791	16.46
456.916	21.46
457.042	27.46
457.167	4.46
457.293	25.46
457.418	4.46
457.544	36.46
457.669	19.46
457.795	36.46
457.92	35.46
458.046	17.46
458.171	46.46
458.297	29.46
458.422	10.46
458.548	27.46
458.673	8.46
458.799	17.46
458.924	7.46
459.05	27.46
459.175	20.46
459.301	21.46
459.426	33.46
459.552	24.46
459.677	26.46
459.803	40.46
459.928	16.46
460.053	10.46
460.179	23.46
460.304	8.46
460.43	21.46
460.555	29.46
460.681	25.46
460.806	31.46
460.931	12.46
461.057	34.46
461.182	9.46
461.308	42.46
461.433	42.46
461.558	25.46
461.684	28.46
461.809	42.46
461.934	11.46
462.06	26.46
462.185	22.46
462.311	15.46
462.436	41.46
462.561	28.46
462.687	18.46
462.812	39.46
462.937	32.46
463.063	28.46
463.188	16.46
463.313	34.46
463.439	33.46
463.564	15.46
463.689	18.46
463.814	24.46
463.94	33.46
464.065	29.46
464.19	41.46
464.316	16.46
464.441	18.46
464.566	18.46
464.692	43.46
464.817	13.46
464.942	20.46
465.067	23.46
465.193	19.46
465.318	16.46
465.443	21.46
465.568	46.46
465.694	16.46
465.819	46.46
465.944	48.46
466.069	41.46
466.194	31.46
466.32	48.46
466.445	24.46
466.57	16.46
466.695	24.46
466.82	40.46
466.946	41.46
467.071	14.46
467.196	8.46
467.321	49.46
467.446	42.46
467.572	36.46
467.697	17.46
467.822	31.46
467.947	26.46
468.072	31.46
468.197	28.46
468.323	26.46
468.448	34.46
468.573	37.46
468.698	25.46
468.823	33.46
468.948	30.46
469.073	24.46
469.198	36.46
469.324	39.46
469.449	47.46
469.574	52.46
469.699	64.46
469.824	62.46
469.949	34.46
470.074	25.46
470.199	38.46
470.324	45.46
470.449	57.46
470.574	26.46
470.7	53.46
470.825	47.46
470.95	45.46
471.075	34.46
471.2	30.46
471.325	43.46
471.45	48.46
471.575	25.46
471.7	45.46
471.825	32.46
471.95	31.46
472.075	26.46
472.2	49.46
472.325	34.46
472.45	18.46
472.575	32.46
472.7	18.46
472.825	33.46
472.95	38.46
473.075	31.46
473.2	33.46
473.325	63.46
473.45	44.46
473.575	42.46
473.7	62.46
473.825	38.46
473.95	32.46
474.075	33.46
474.2	14.46
474.325	25.46
474.45	39.46
474.574	30.46
474.699	20.46
474.824	9.46
474.949	21.46
475.074	10.46
475.199	39.46
475.324	27.46
475.449	32.46
475.574	29.46
475.699	13.46
475.824	19.46
475.949	38.46
476.073	17.46
476.198	12.46
476.323	14.46
476.448	1.46
476.573	10.46
476.698	30.46
476.823	26.46
476.947	26.46
477.072	27.46
477.197	25.46
477.322	22.46
477.447	13.46
477.572	16.46
477.697	29.46
477.821	1.46
477.946	21.46
478.071	32.46
478.196	29.46
478.321	20.46
478.445	33.46
478.57	29.46
478.695	21.46
478.82	15.46
478.945	21.46
479.069	21.46
479.194	21.46
479.319	25.46
479.444	35.46
479.569	15.46
479.693	27.46
479.818	27.46
479.943	39.46
480.068	27.46
480.192	26.46
480.317	23.46
480.442	23.46
480.567	9.46
480.691	19.46
480.816	21.46
480.941	20.46
481.066	47.46
481.19	43.46
481.315	27.46
481.44	6.46
481.564	-2.54
481.689	11.46
481.814	19.46
481.938	22.46
482.063	6.46
482.188	26.46
482.313	44.46
482.437	25.46
482.562	18.46
482.687	2.46
482.811	12.46
482.936	27.46
483.061	30.46
483.185	17.46
483.31	32.46
483.435	20.46
483.559	17.46
483.684	10.46
483.808	47.46
483.933	28.46
484.058	17.46
484.182	4.46
484.307	27.46
484.432	13.46
484.556	15.46
484.681	21.46
484.805	24.46
484.93	24.46
485.055	24.46
485.179	41.46
485.304	39.46
485.428	20.46
485.553	15.46
485.678	9.46
485.802	20.46
485.927	34.46
486.051	37.46
486.176	23.46
486.3	36.46
486.425	16.46
486.549	29.46
486.674	27.46
486.799	27.46
486.923	18.46
487.048	23.46
487.172	0.46
487.297	9.46
487.421	21.46
487.546	23.46
487.67	24.46
487.795	25.46
487.919	24.46
488.044	25.46
488.168	31.46
488.293	17.46
488.417	2.46
488.542	12.46
488.666	10.46
488.791	20.46
488.915	17.46
489.04	19.46
489.164	27.46
489.289	36.46
489.413	6.46
489.538	5.46
489.662	42.46
489.786	21.46
489.911	26.46
490.035	8.46
490.16	-8.54
490.284	12.46
490.409	-8.54
490.533	16.46
490.658	48.46
490.782	29.46
490.906	41.46
491.031	110.46
491.155	151.46
491.28	154.46
491.404	160.46
491.528	241.46
491.653	134.46
491.777	84.46
491.902	32.46
492.026	24.46
492.15	21.46
492.275	40.46
492.399	37.46
492.524	32.46
492.648	48.46
492.772	26.46
492.897	30.46
493.021	38.46
493.145	29.46
493.27	25.46
493.394	34.46
493.518	23.46
493.643	15.46
493.767	42.46
493.891	23.46
494.016	18.46
494.14	12.46
494.264	16.46
494.389	23.46
494.513	18.46
494.637	16.46
494.762	20.46
494.886	31.46
495.01	39.46
495.134	22.46
495.259	50.46
495.383	25.46
495.507	13.46
495.632	37.46
495.756	45.46
495.88	29.46
496.004	31.46
496.129	21.46
496.253	15.46
496.377	15.46
496.501	37.46
496.626	20.46
496.75	30.46
496.874	26.46
496.998	5.46
497.123	44.46
497.247	25.46
497.371	22.46
497.495	19.46
497.62	18.46
497.744	12.46
497.868	34.46
497.992	26.46
498.116	17.46
498.241	10.46
498.365	7.46
498.489	9.46
498.613	43.46
498.737	23.46
498.862	21.46
498.986	10.46
499.11	23.46
499.234	20.46
499.358	16.46
499.482	22.46
499.607	23.46
499.731	12.46
499.855	21.46
499.979	39.46
500.103	24.46
500.227	18.46
500.351	14.46
500.476	15.46
500.6	12.46
500.724	17.46
500.848	26.46
500.972	36.46
501.096	20.46
501.22	38.46
501.344	15.46
501.469	2.46
501.593	31.46
501.717	36.46
501.841	21.46
501.965	8.46
502.089	14.46
502.213	32.46
502.337	29.46
502.461	27.46
502.585	12.46
502.709	18.46
502.834	5.46
502.958	14.46
503.082	24.46
503.206	11.46
503.33	27.46
503.454	17.46
503.578	29.46
503.702	40.46
503.826	49.46
503.95	34.46
504.074	31.46
504.198	25.46
504.322	17.46
504.446	18.46
504.57	22.46
504.694	10.46
504.818	15.46
504.942	25.46
505.066	26.46
505.19	35.46
505.314	21.46
505.438	39.46
505.562	29.46
505.686	39.46
505.81	23.46
505.934	26.46
506.058	13.46
506.182	16.46
506.306	21.46
506.43	2.46
506.554	11.46
506.678	3.46
506.802	24.46
506.926	37.46
507.05	41.46
507.174	43.46
507.298	38.46
507.422	32.46
507.546	24.46
507.67	36.46
507.794	19.46
507.918	25.46
508.042	18.46
508.165	15.46
508.289	22.46
508.413	30.46
508.537	6.46
508.661	23.46
508.785	28.46
508.909	34.46
509.033	28.46
509.157	42.46
509.281	21.46
509.405	30.46
509.528	41.46
509.652	50.46
509.776	32.46
509.9	51.46
510.024	31.46
510.148	38.46
510.272	34.46
510.396	54.46
510.519	36.46
510.643	53.46
510.767	39.46
510.891	27.46
511.015	42.46
511.139	39.46
511.263	49.46
511.386	39.46
511.51	26.46
511.634	42.46
511.758	50.46
511.882	37.46
512.006	47.46
512.129	64.46
512.253	106.46
512.377	74.46
512.501	81.46
512.625	95.46
512.748	97.46
512.872	72.46
512.996	53.46
513.12	45.46
513.244	51.46
513.367	78.46
513.491	68.46
513.615	84.46
513.739	72.46
513.862	79.46
513.986	77.46
514.11	86.46
514.234	83.46
514.358	114.46
514.481	116.46
514.605	110.46
514.729	106.46
514.853	113.46
514.976	97.46
515.1	117.46
515.224	105.46
515.348	75.46
515.471	74.46
515.595	98.46
515.719	126.46
515.842	225.46
515.966	290.46
516.09	322.46
516.214	300.46
516.337	350.46
516.461	234.46
516.585	95.46
516.708	38.46
516.832	14.46
516.956	20.46
517.08	33.46
517.203	-0.54
517.327	20.46
517.451	25.46
517.574	38.46
517.698	9.46
517.822	14.46
517.945	16.46
518.069	-1.54
518.193	37.46
518.316	21.46
518.44	40.46
518.564	17.46
518.687	-5.54
518.811	21.46
518.935	41.46
519.058	-3.54
519.182	36.46
519.306	21.46
519.429	5.46
519.553	72.46
519.676	27.46
519.8	30.46
519.924	18.46
520.047	20.46
520.171	10.46
520.294	16.46
520.418	18.46
520.542	22.46
520.665	32.46
520.789	32.46
520.913	-3.54
521.036	-4.54
521.16	5.46
521.283	30.46
521.407	15.46
521.53	15.46
521.654	5.46
521.778	30.46
521.901	20.46
522.025	27.46
522.148	9.46
522.272	29.46
522.395	17.46
522.519	28.46
522.643	29.46
522.766	16.46
522.89	23.46
523.013	28.46
523.137	16.46
523.26	0.46
523.384	8.46
523.507	24.46
523.631	21.46
523.754	20.46
523.878	14.46
524.002	25.46
524.125	12.46
524.249	13.46
524.372	15.46
524.496	10.46
524.619	32.46
524.743	23.46
524.866	1.46
524.99	18.46
525.113	7.46
525.237	24.46
525.36	4.46
525.484	12.46
525.607	19.46
525.731	3.46
525.854	30.46
525.978	43.46
526.101	23.46
526.224	13.46
526.348	29.46
526.471	33.46
526.595	24.46
526.718	-2.54
526.842	3.46
526.965	21.46
527.089	18.46
527.212	41.46
527.336	22.46
527.459	19.46
527.582	12.46
527.706	25.46
527.829	18.46
527.953	17.46
528.076	-2.54
528.2	4.46
528.323	31.46
528.446	32.46
528.57	13.46
528.693	33.46
528.817	14.46
528.94	18.46
529.064	59.46
529.187	11.46
529.31	6.46
529.434	30.46
529.557	19.46
529.68	11.46
529.804	0.46
529.927	25.46
530.051	4.46
530.174	6.46
530.297	8.46
530.421	31.46
530.544	29.46
530.668	18.46
530.791	3.46
530.914	31.46
531.038	20.46
531.161	8.46
531.284	15.46
531.408	26.46
531.531	16.46
531.654	8.46
531.778	8.46
531.901	6.46
532.024	19.46
532.148	21.46
532.271	5.46
532.394	11.46
532.518	12.46
532.641	15.46
532.764	15.46
532.888	32.46
533.011	7.46
533.134	1.46
533.258	38.46
533.381	4.46
533.504	25.46
533.628	25.46
533.751	7.46
533.874	26.46
533.997	35.46
534.121	14.46
534.244	6.46
534.367	17.46
534.491	8.46
534.614	-3.54
534.737	10.46
534.86	27.46
534.984	13.46
535.107	10.46
535.23	30.46
535.354	19.46
535.477	-0.54
535.6	11.46
535.723	15.46
535.847	24.46
535.97	-2.54
536.093	9.46
536.216	15.46
536.34	22.46
536.463	-1.54
536.586	17.46
536.709	28.46
536.833	31.46
536.956	8.46
537.079	12.46
537.202	54.46
537.325	9.46
537.449	10.46
537.572	31.46
537.695	25.46
537.818	12.46
537.941	24.46
538.065	14.46
538.188	12.46
538.311	32.46
538.434	23.46
538.558	9.46
538.681	37.46
538.804	29.46
538.927	32.46
539.05	15.46
539.173	9.46
539.297	13.46
539.42	24.46
539.543	34.46
539.666	30.46
539.789	29.46
539.913	27.46
540.036	32.46
540.159	34.46
540.282	17.46
540.405	27.46
540.528	24.46
540.651	37.46
540.775	12.46
540.898	44.46
541.021	22.46
541.144	42.46
541.267	38.46
541.39	30.46
541.513	41.46
541.637	45.46
541.76	46.46
541.883	25.46
542.006	48.46
542.129	58.46
542.252	35.46
542.375	48.46
542.498	44.46
542.622	44.46
542.745	45.46
542.868	47.46
542.991	67.46
543.114	58.46
543.237	61.46
543.36	66.46
543.483	38.46
543.606	57.46
543.73	85.46
543.853	84.46
543.976	87.46
544.099	120.46
544.222	129.46
544.345	114.46
544.468	156.46
544.591	223.46
544.714	283.46
544.837	365.46
544.96	430.46
545.083	659.46
545.206	1046.46
545.329	2467.46
545.453	10964.46
545.576	15255.46
545.699	15683.46
545.822	15683.46
545.945	15683.46
546.068	15683.46
546.191	15683.46
546.314	15683.46
546.437	15683.46
546.56	15683.46
546.683	15683.46
546.806	15683.46
546.929	15683.46
547.052	15683.46
547.175	15683.46
547.298	15683.46
547.421	15683.46
547.544	15683.46
547.667	3490.46
547.79	2283.46
547.913	1010.46
548.036	865.46
548.159	642.46
548.282	608.46
548.405	469.46
548.528	498.46
548.651	390.46
548.774	380.46
548.897	330.46
549.02	345.46
549.143	319.46
549.266	314.46
549.389	282.46
549.512	248.46
549.635	250.46
549.758	239.46
549.881	202.46
550.004	209.46
550.127	199.46
550.25	200.46
550.373	175.46
550.496	179.46
550.619	144.46
550.742	145.46
550.865	141.46
550.988	165.46
551.111	169.46
551.234	157.46
551.356	140.46
551.479	117.46
551.602	123.46
551.725	127.46
551.848	141.46
551.971	141.46
552.094	119.46
552.217	124.46
552.34	137.46
552.463	97.46
552.586	100.46
552.709	103.46
552.832	107.46
552.955	105.46
553.077	117.46
553.2	104.46
553.323	73.46
553.446	109.46
553.569	111.46
553.692	108.46
553.815	101.46
553.938	118.46
554.061	102.46
554.184	82.46
554.306	58.46
554.429	78.46
554.552	88.46
554.675	68.46
554.798	72.46
554.921	92.46
555.044	76.46
555.167	84.46
555.29	84.46
555.412	68.46
555.535	79.46
555.658	84.46
555.781	83.46
555.904	60.46
556.027	77.46
556.15	77.46
556.272	68.46
556.395	72.46
556.518	53.46
556.641	77.46
556.764	73.46
556.887	74.46
557.01	58.46
557.132	46.46
557.255	67.46
557.378	68.46
557.501	68.46
557.624	77.46
557.747	79.46
557.869	82.46
557.992	84.46
558.115	94.46
558.238	86.46
558.361	103.46
558.483	95.46
558.606	71.46
558.729	58.46
558.852	84.46
558.975	70.46
559.098	64.46
559.22	69.46
559.343	48.46
559.466	43.46
559.589	38.46
559.712	58.46
559.834	59.46
559.957	46.46
560.08	42.46
560.203	47.46
560.325	66.46
560.448	66.46
560.571	57.46
560.694	43.46
560.817	81.46
560.939	60.46
561.062	54.46
561.185	53.46
561.308	72.46
561.43	46.46
561.553	76.46
561.676	54.46
561.799	61.46
561.921	74.46
562.044	36.46
562.167	54.46
562.29	84.46
562.413	73.46
562.535	69.46
562.658	34.46
562.781	68.46
562.903	84.46
563.026	97.46
563.149	119.46
563.272	119.46
563.394	110.46
563.517	106.46
563.64	96.46
563.763	54.46
563.885	60.46
564.008	74.46
564.131	61.46
564.254	26.46
564.376	32.46
564.499	35.46
564.622	41.46
564.744	43.46
564.867	46.46
564.99	47.46
565.113	45.46
565.235	43.46
565.358	47.46
565.481	40.46
565.603	36.46
565.726	15.46
565.849	44.46
565.971	39.46
566.094	26.46
566.217	49.46
566.34	57.46
566.462	48.46
566.585	34.46
566.708	60.46
566.83	41.46
566.953	70.46
567.076	46.46
567.198	45.46
567.321	28.46
567.444	58.46
567.566	44.46
567.689	45.46
567.812	33.46
567.934	32.46
568.057	31.46
568.18	41.46
568.302	40.46
568.425	8.46
568.548	28.46
568.67	22.46
568.793	38.46
568.916	32.46
569.038	22.46
569.161	26.46
569.283	49.46
569.406	22.46
569.529	28.46
569.651	30.46
569.774	30.46
569.897	36.46
570.019	62.46
570.142	37.46
570.265	35.46
570.387	29.46
570.51	28.46
570.632	32.46
570.755	46.46
570.878	32.46
571	29.46
571.123	17.46
571.246	33.46
571.368	22.46
571.491	42.46
571.613	34.46
571.736	28.46
571.859	33.46
571.981	46.46
572.104	27.46
572.226	36.46
572.349	20.46
572.472	31.46
572.594	41.46
572.717	25.46
572.839	25.46
572.962	40.46
573.085	42.46
573.207	24.46
573.33	50.46
573.452	53.46
573.575	63.46
573.697	38.46
573.82	46.46
573.943	38.46
574.065	42.46
574.188	31.46
574.31	35.46
574.433	39.46
574.555	54.46
574.678	18.46
574.801	23.46
574.923	31.46
575.046	40.46
575.168	30.46
575.291	59.46
575.413	44.46
575.536	36.46
575.659	47.46
575.781	32.46
575.904	44.46
576.026	72.46
576.149	89.46
576.271	125.46
576.394	213.46
576.516	545.46
576.639	3674.46
576.761	10164.46
576.884	8828.46
577.007	8708.46
577.129	8001.46
577.252	3727.46
577.374	1306.46
577.497	513.46
577.619	281.46
577.742	167.46
577.864	148.46
577.987	132.46
578.109	132.46
578.232	112.46
578.354	159.46
578.477	196.46
578.599	380.46
578.722	1959.46
578.844	9160.46
578.967	9810.46
579.089	8812.46
579.212	9096.46
579.334	5231.46
579.457	1918.46
579.579	712.46
579.702	328.46
579.824	204.46
579.947	132.46
580.069	112.46
580.192	85.46
580.314	92.46
580.437	76.46
580.559	86.46
580.682	74.46
580.804	76.46
580.927	70.46
581.049	86.46
581.172	51.46
581.294	48.46
581.417	54.46
581.539	38.46
581.662	41.46
581.784	48.46
581.907	48.46
582.029	33.46
582.152	29.46
582.274	40.46
582.396	51.46
582.519	45.46
582.641	28.46
582.764	30.46
582.886	60.46
583.009	54.46
583.131	30.46
583.254	48.46
583.376	46.46
583.499	44.46
583.621	31.46
583.743	33.46
583.866	30.46
583.988	31.46
584.111	52.46
584.233	32.46
584.356	26.46
584.478	44.46
584.601	13.46
584.723	35.46
584.845	48.46
584.968	22.46
585.09	29.46
585.213	52.46
585.335	27.46
585.458	25.46
585.58	19.46
585.702	57.46
585.825	37.46
585.947	31.46
586.07	33.46
586.192	24.46
586.315	45.46
586.437	14.46
586.559	22.46
586.682	26.46
586.804	38.46
586.927	16.46
587.049	34.46
587.171	45.46
587.294	43.46
587.416	54.46
587.539	33.46
587.661	21.46
587.783	12.46
587.906	33.46
588.028	32.46
588.151	38.46
588.273	50.46
588.395	19.46
588.518	11.46
588.64	16.46
588.763	28.46
588.885	31.46
589.007	59.46
589.13	13.46
589.252	15.46
589.375	38.46
589.497	18.46
589.619	25.46
589.742	24.46
589.864	43.46
589.986	34.46
590.109	14.46
590.231	14.46
590.354	34.46
590.476	19.46
590.598	19.46
590.721	28.46
590.843	35.46
590.965	25.46
591.088	14.46
591.21	26.46
591.332	15.46
591.455	7.46
591.577	28.46
591.7	16.46
591.822	23.46
591.944	31.46
592.067	5.46
592.189	20.46
592.311	37.46
592.434	25.46
592.556	29.46
592.678	22.46
592.801	24.46
592.923	36.46
593.045	43.46
593.168	24.46
593.29	28.46
593.412	31.46
593.535	40.46
593.657	20.46
593.779	22.46
593.902	43.46
594.024	24.46
594.146	51.46
594.269	32.46
594.391	12.46
594.513	37.46
594.636	21.46
594.758	24.46
594.88	39.46
595.003	31.46
595.125	34.46
595.247	32.46
595.37	32.46
595.492	21.46
595.614	42.46
595.737	21.46
595.859	29.46
595.981	25.46
596.104	31.46
596.226	16.46
596.348	19.46
596.471	28.46
596.593	38.46
596.715	12.46
596.838	28.46
596.96	17.46
597.082	24.46
597.204	28.46
597.327	33.46
597.449	6.46
597.571	13.46
597.694	34.46
597.816	23.46
597.938	20.46
598.061	16.46
598.183	19.46
598.305	32.46
598.427	18.46
598.55	21.46
598.672	29.46
598.794	31.46
598.917	-1.54
599.039	28.46
599.161	33.46
599.283	26.46
599.406	21.46
599.528	36.46
599.65	44.46
599.773	14.46
599.895	45.46
600.017	36.46
600.139	34.46
600.262	21.46
600.384	31.46
600.506	39.46
600.628	40.46
600.751	25.46
600.873	38.46
600.995	38.46
601.118	37.46
601.24	27.46
601.362	30.46
601.484	31.46
601.607	13.46
601.729	16.46
601.851	17.46
601.973	25.46
602.096	24.46
602.218	29.46
602.34	15.46
602.462	14.46
602.585	31.46
602.707	16.46
602.829	34.46
602.951	30.46
603.074	7.46
603.196	23.46
603.318	26.46
603.44	34.46
603.563	23.46
603.685	12.46
603.807	28.46
603.929	34.46
604.052	26.46
604.174	35.46
604.296	36.46
604.418	40.46
604.541	38.46
604.663	33.46
604.785	14.46
604.907	26.46
605.03	11.46
605.152	55.46
605.274	8.46
605.396	34.46
605.519	10.46
605.641	16.46
605.763	21.46
605.885	29.46
606.008	24.46
606.13	32.46
606.252	33.46
606.374	22.46
606.496	-0.54
606.619	23.46
606.741	-3.54
606.863	20.46
606.985	53.46
607.108	32.46
607.23	1.46
607.352	25.46
607.474	5.46
607.596	9.46
607.719	-0.54
607.841	25.46
607.963	25.46
608.085	16.46
608.207	30.46
608.33	13.46
608.452	18.46
608.574	23.46
608.696	26.46
608.819	18.46
608.941	16.46
609.063	9.46
609.185	20.46
609.307	14.46
609.43	26.46
609.552	25.46
609.674	-2.54
609.796	31.46
609.918	49.46
610.041	33.46
610.163	37.46
610.285	28.46
610.407	36.46
610.529	18.46
610.652	29.46
610.774	28.46
610.896	21.46
611.018	23.46
611.14	25.46
611.263	12.46
611.385	19.46
611.507	30.46
611.629	9.46
611.751	17.46
611.873	35.46
611.996	28.46
612.118	41.46
612.24	24.46
612.362	38.46
612.484	45.46
612.607	45.46
612.729	53.46
612.851	37.46
612.973	27.46
613.095	14.46
613.218	20.46
613.34	28.46
613.462	40.46
613.584	32.46
613.706	23.46
613.828	37.46
613.951	16.46
614.073	20.46
614.195	5.46
614.317	23.46
614.439	31.46
614.561	28.46
614.684	26.46
614.806	20.46
614.928	16.46
615.05	26.46
615.172	42.46
615.294	41.46
615.417	17.46
615.539	24.46
615.661	29.46
615.783	48.46
615.905	10.46
616.027	13.46
616.15	26.46
616.272	27.46
616.394	20.46
616.516	16.46
616.638	27.46
616.76	31.46
616.883	17.46
617.005	10.46
617.127	16.46
617.249	14.46
617.371	15.46
617.493	25.46
617.615	41.46
617.738	13.46
617.86	28.46
617.982	18.46
618.104	21.46
618.226	-1.54
618.348	15.46
618.471	16.46
618.593	20.46
618.715	8.46
618.837	25.46
618.959	26.46
619.081	39.46
619.203	33.46
619.326	33.46
619.448	42.46
619.57	35.46
619.692	31.46
619.814	33.46
619.936	24.46
620.058	40.46
620.181	22.46
620.303	11.46
620.425	10.46
620.547	20.46
620.669	25.46
620.791	20.46
620.913	12.46
621.036	8.46
621.158	18.46
621.28	24.46
621.402	28.46
621.524	14.46
621.646	16.46
621.768	24.46
621.891	9.46
622.013	11.46
622.135	16.46
622.257	-9.54
622.379	13.46
622.501	6.46
622.623	9.46
622.745	21.46
622.868	25.46
622.99	29.46
623.112	24.46
623.234	14.46
623.356	23.46
623.478	7.46
623.6	6.46
623.722	7.46
623.845	29.46
623.967	16.46
624.089	41.46
624.211	24.46
624.333	20.46
624.455	20.46
624.577	17.46
624.699	15.46
624.822	19.46
624.944	23.46
625.066	19.46
625.188	6.46
625.31	18.46
625.432	26.46
625.554	13.46
625.676	42.46
625.799	42.46
625.921	44.46
626.043	30.46
626.165	33.46
626.287	1.46
626.409	37.46
626.531	19.46
626.653	13.46
626.775	50.46
626.898	32.46
627.02	47.46
627.142	37.46
627.264	20.46
627.386	23.46
627.508	27.46
627.63	21.46
627.752	26.46
627.874	17.46
627.997	34.46
628.119	40.46
628.241	22.46
628.363	26.46
628.485	25.46
628.607	22.46
628.729	-0.54
628.851	2.46
628.973	32.46
629.096	9.46
629.218	15.46
629.34	22.46
629.462	20.46
629.584	11.46
629.706	10.46
629.828	25.46
629.95	16.46
630.072	11.46
630.195	10.46
630.317	33.46
630.439	25.46
630.561	23.46
630.683	12.46
630.805	17.46
630.927	29.46
631.049	16.46
631.171	4.46
631.293	1.46
631.416	14.46
631.538	8.46
631.66	13.46
631.782	29.46
631.904	25.46
632.026	4.46
632.148	22.46
632.27	31.46
632.392	28.46
632.514	24.46
632.637	34.46
632.759	1.46
632.881	-4.54
633.003	-2.54
633.125	21.46
633.247	14.46
633.369	17.46
633.491	36.46
633.613	18.46
633.735	10.46
633.858	5.46
633.98	19.46
634.102	17.46
634.224	7.46
634.346	19.46
634.468	13.46
634.59	11.46
634.712	37.46
634.834	16.46
634.956	10.46
635.078	1.46
635.201	1.46
635.323	16.46
635.445	23.46
635.567	-6.54
635.689	21.46
635.811	12.46
635.933	14.46
636.055	20.46
636.177	7.46
636.299	21.46
636.421	15.46
636.544	6.46
636.666	18.46
636.788	13.46
636.91	5.46
637.032	8.46
637.154	29.46
637.276	36.46
637.398	32.46
637.52	23.46
637.642	8.46
637.764	16.46
637.887	1.46
638.009	8.46
638.131	9.46
638.253	3.46
638.375	21.46
638.497	32.46
638.619	2.46
638.741	13.46
638.863	8.46
638.985	13.46
639.107	6.46
639.23	13.46
639.352	21.46
639.474	23.46
639.596	12.46
639.718	8.46
639.84	18.46
639.962	27.46
640.084	27.46
640.206	26.46
640.328	0.46
640.45	30.46
640.573	10.46
640.695	8.46
640.817	34.46
640.939	21.46
641.061	5.46
641.183	2.46
641.305	5.46
641.427	11.46
641.549	5.46
641.671	17.46
641.793	1.46
641.915	21.46
642.038	4.46
642.16	19.46
642.282	14.46
642.404	9.46
642.526	28.46
642.648	16.46
642.77	8.46
642.892	13.46
643.014	22.46
643.136	16.46
643.258	22.46
643.381	31.46
643.503	37.46
643.625	17.46
643.747	13.46
643.869	12.46
643.991	15.46
644.113	9.46
644.235	5.46
644.357	6.46
644.479	20.46
644.601	-1.54
644.723	-1.54
644.846	16.46
644.968	11.46
645.09	8.46
645.212	-1.54
645.334	36.46
645.456	15.46
645.578	19.46
645.7	21.46
645.822	25.46
645.944	20.46
646.066	6.46
646.188	2.46
646.311	27.46
646.433	9.46
646.555	13.46
646.677	20.46
646.799	16.46
646.921	18.46
647.043	37.46
647.165	4.46
647.287	21.46
647.409	14.46
647.531	25.46
647.654	5.46
647.776	27.46
647.898	26.46
648.02	21.46
648.142	9.46
648.264	10.46
648.386	4.46
648.508	13.46
648.63	-4.54
648.752	15.46
648.874	8.46
648.997	19.46
649.119	20.46
649.241	4.46
649.363	18.46
649.485	16.46
649.607	5.46
649.729	-7.54
649.851	4.46
649.973	14.46
650.095	21.46
650.217	4.46
650.34	14.46
650.462	21.46
650.584	11.46
650.706	10.46
650.828	13.46
650.95	15.46
651.072	20.46
651.194	-1.54
651.316	4.46
651.438	19.46
651.56	-0.54
651.683	-4.54
651.805	4.46
651.927	16.46
652.049	6.46
652.171	15.46
652.293	14.46
652.415	-3.54
652.537	-0.54
652.659	15.46
652.781	9.46
652.903	6.46
653.026	34.46
653.148	20.46
653.27	18.46
653.392	18.46
653.514	17.46
653.636	18.46
653.758	-4.54
653.88	-1.54
654.002	0.46
654.124	-11.54
654.247	16.46
654.369	13.46
654.491	5.46
654.613	30.46
654.735	16.46
654.857	20.46
654.979	21.46
655.101	9.46
655.223	36.46
655.345	9.46
655.468	31.46
655.59	10.46
655.712	16.46
655.834	13.46
655.956	4.46
656.078	13.46
656.2	2.46
656.322	0.46
656.444	-13.54
656.566	30.46
656.689	8.46
656.811	-0.54
656.933	10.46
657.055	-8.54
657.177	14.46
657.299	8.46
657.421	9.46
657.543	17.46
657.665	11.46
657.787	25.46
657.91	18.46
658.032	7.46
658.154	6.46
658.276	5.46
658.398	5.46
658.52	9.46
658.642	25.46
658.764	31.46
658.886	-4.54
659.009	9.46
659.131	20.46
659.253	4.46
659.375	12.46
659.497	20.46
659.619	16.46
659.741	11.46
659.863	11.46
659.985	-3.54
660.108	7.46
660.23	3.46
660.352	17.46
660.474	22.46
660.596	34.46
660.718	20.46
660.84	20.46
660.962	22.46
661.084	2.46
661.207	17.46
661.329	9.46
661.451	18.46
661.573	16.46
661.695	31.46
661.817	20.46
661.939	31.46
662.061	36.46
662.184	16.46
662.306	14.46
662.428	16.46
662.55	43.46
662.672	4.46
662.794	9.46
662.916	16.46
663.038	11.46
663.161	37.46
663.283	32.46
663.405	8.46
663.527	3.46
663.649	21.46
663.771	9.46
663.893	18.46
664.015	27.46
664.138	17.46
664.26	1.46
664.382	18.46
664.504	18.46
664.626	-1.54
664.748	17.46
664.87	12.46
664.992	21.46
665.115	22.46
665.237	17.46
665.359	12.46
665.481	3.46
665.603	4.46
665.725	0.46
665.847	-13.54
665.97	5.46
666.092	22.46
666.214	12.46
666.336	-17.54
666.458	6.46
666.58	16.46
666.702	12.46
666.825	4.46
666.947	-13.54
667.069	19.46
667.191	5.46
667.313	20.46
667.435	6.46
667.557	8.46
667.68	11.46
667.802	15.46
667.924	12.46
668.046	11.46
668.168	15.46
668.29	20.46
668.412	12.46
668.535	5.46
668.657	21.46
668.779	11.46
668.901	26.46
669.023	12.46
669.145	18.46
669.267	7.46
669.39	15.46
669.512	30.46
669.634	8.46
669.756	-6.54
669.878	27.46
670	5.46
670.123	16.46
670.245	42.46
670.367	32.46
670.489	18.46
670.611	7.46
670.733	4.46
670.856	10.46
670.978	14.46
671.1	32.46
671.222	23.46
671.344	5.46
671.466	4.46
671.589	-8.54
671.711	12.46
671.833	2.46
671.955	5.46
672.077	-6.54
672.199	20.46
672.322	14.46
672.444	18.46
672.566	23.46
672.688	4.46
672.81	11.46
672.932	6.46
673.055	8.46
673.177	-17.54
673.299	12.46
673.421	13.46
673.543	9.46
673.665	27.46
673.788	10.46
673.91	1.46
674.032	-6.54
674.154	6.46
674.276	13.46
674.399	5.46
674.521	14.46
674.643	5.46
674.765	6.46
674.887	14.46
675.009	15.46
675.132	12.46
675.254	13.46
675.376	6.46
675.498	13.46
675.62	15.46
675.743	1.46
675.865	6.46
675.987	16.46
676.109	22.46
676.231	19.46
676.354	10.46
676.476	15.46
676.598	14.46
676.72	13.46
676.842	16.46
676.965	15.46
677.087	5.46
677.209	18.46
677.331	13.46
677.453	13.46
677.576	-2.54
677.698	-7.54
677.82	7.46
677.942	7.46
678.064	16.46
678.187	12.46
678.309	12.46
678.431	16.46
678.553	18.46
678.675	28.46
678.798	23.46
678.92	6.46
679.042	6.46
679.164	13.46
679.286	12.46
679.409	5.46
679.531	1.46
679.653	12.46
679.775	8.46
679.898	1.46
680.02	16.46
680.142	16.46
680.264	14.46
680.386	-4.54
680.509	14.46
680.631	7.46
680.753	-7.54
680.875	5.46
680.998	9.46
681.12	12.46
681.242	12.46
681.364	2.46
681.486	0.46
681.609	4.46
681.731	-8.54
681.853	13.46
681.975	1.46
682.098	22.46
682.22	24.46
682.342	9.46
682.464	23.46
682.587	17.46
682.709	24.46
682.831	12.46
682.953	20.46
683.076	-2.54
683.198	26.46
683.32	25.46
683.442	18.46
683.565	17.46
683.687	8.46
683.809	5.46
683.931	-7.54
684.054	19.46
684.176	12.46
684.298	9.46
684.42	17.46
684.543	29.46
684.665	24.46
684.787	7.46
684.909	-6.54
685.032	12.46
685.154	-23.54
685.276	2.46
685.398	5.46
685.521	5.46
685.643	1.46
685.765	-4.54
685.887	23.46
686.01	31.46
686.132	8.46
686.254	-1.54
686.377	20.46
686.499	28.46
686.621	22.46
686.743	8.46
686.866	4.46
686.988	35.46
687.11	11.46
687.232	-1.54
687.355	-6.54
687.477	-0.54
687.599	17.46
687.722	-6.54
687.844	14.46
687.966	10.46
688.088	30.46
688.211	36.46
688.333	21.46
688.455	28.46
688.578	14.46
688.7	8.46
688.822	5.46
688.944	-11.54
689.067	45.46
689.189	24.46
689.311	-0.54
689.434	15.46
689.556	26.46
689.678	12.46
689.801	-1.54
689.923	-5.54
690.045	9.46
690.167	32.46
690.29	25.46
690.412	21.46
690.534	20.46
690.657	16.46
690.779	3.46
690.901	14.46
691.024	4.46
691.146	17.46
691.268	18.46
691.391	33.46
691.513	22.46
691.635	11.46
691.758	18.46
691.88	20.46
692.002	10.46
692.125	21.46
692.247	8.46
692.369	3.46
692.492	5.46
692.614	18.46
692.736	10.46
692.859	14.46
692.981	16.46
693.103	4.46
693.226	21.46
693.348	31.46
693.47	19.46
693.593	30.46
693.715	36.46
693.837	22.46
693.96	5.46
694.082	22.46
694.204	12.46
694.327	24.46
694.449	-0.54
694.571	11.46
694.694	17.46
694.816	16.46
694.938	21.46
695.061	5.46
695.183	17.46
695.305	17.46
695.428	20.46
695.55	0.46
695.672	10.46
695.795	34.46
695.917	45.46
696.04	0.46
696.162	6.46
696.284	29.46
696.407	15.46
696.529	17.46
696.651	22.46
696.774	14.46
696.896	19.46
697.019	23.46
697.141	6.46
697.263	4.46
697.386	14.46
697.508	11.46
697.63	12.46
697.753	13.46
697.875	12.46
697.998	12.46
698.12	22.46
698.242	8.46
698.365	15.46
698.487	19.46
698.61	21.46
698.732	18.46
698.854	10.46
698.977	4.46
699.099	12.46
699.221	3.46
699.344	8.46
699.466	10.46
699.589	14.46
699.711	-6.54
699.834	13.46
699.956	6.46
700.078	0.46
700.201	4.46
700.323	25.46
700.446	17.46
700.568	3.46
700.69	17.46
700.813	9.46
700.935	-1.54
701.058	10.46
701.18	15.46
701.302	9.46
701.425	5.46
701.547	11.46
701.67	12.46
701.792	19.46
701.915	14.46
702.037	2.46
702.159	6.46
702.282	20.46
702.404	16.46
702.527	29.46
702.649	41.46
702.772	17.46
702.894	15.46
703.017	11.46
703.139	13.46
703.261	36.46
703.384	15.46
703.506	16.46
703.629	4.46
703.751	14.46
703.874	15.46
703.996	-1.54
704.119	-2.54
704.241	4.46
704.364	-16.54
704.486	23.46
704.608	9.46
704.731	0.46
704.853	18.46
704.976	8.46
705.098	16.46
705.221	5.46
705.343	11.46
705.466	25.46
705.588	12.46
705.711	-10.54
705.833	2.46
705.956	5.46
706.078	24.46
706.201	13.46
706.323	7.46
706.446	10.46
