Data from LowRes_mercury_15_20_11_07_2024_HR4C61881__52__15-23-37-471.txt Node

Date: Thu Nov 07 15:23:37 EST 2024
User: crc00042
Spectrometer: HR4C6188
Trigger mode: 4
Integration Time (sec): 1.000000E-1
Scans to average: 1
Electric dark correction enabled: true
Nonlinearity correction enabled: false
Boxcar width: 0
XAxis mode: Wavelengths
Number of Pixels in Spectrum: 3648
>>>>>Begin Spectral Data<<<<<
245.66	-83.46
245.797	-83.46
245.934	-83.46
246.071	-70.46
246.208	8.54
246.344	2.54
246.481	-8.46
246.618	-15.46
246.755	10.54
246.892	-22.46
247.029	-9.46
247.165	-10.46
247.302	17.54
247.439	-2.46
247.576	12.54
247.713	-12.46
247.849	34.54
247.986	3.54
248.123	8.54
248.26	-1.46
248.396	26.54
248.533	7.54
248.67	-7.46
248.806	-2.46
248.943	-27.46
249.08	-7.46
249.216	15.54
249.353	6.54
249.49	-0.46
249.626	4.54
249.763	4.54
249.9	-21.46
250.036	-2.46
250.173	0.54
250.309	-3.46
250.446	8.54
250.582	10.54
250.719	-9.46
250.856	0.54
250.992	-0.46
251.129	2.54
251.265	7.54
251.402	-13.46
251.538	-15.46
251.675	4.54
251.811	17.54
251.948	26.54
252.084	6.54
252.221	14.54
252.357	0.54
252.493	11.54
252.63	6.54
252.766	13.54
252.903	-5.46
253.039	-27.46
253.175	10.54
253.312	9.54
253.448	-7.46
253.585	0.54
253.721	2.54
253.857	0.54
253.994	6.54
254.13	1.54
254.266	13.54
254.403	-2.46
254.539	-1.46
254.675	8.54
254.811	-4.46
254.948	-0.46
255.084	-3.46
255.22	0.54
255.356	-7.46
255.493	18.54
255.629	13.54
255.765	19.54
255.901	8.54
256.037	4.54
256.174	27.54
256.31	-19.46
256.446	-4.46
256.582	5.54
256.718	18.54
256.854	27.54
256.991	23.54
257.127	11.54
257.263	-10.46
257.399	-12.46
257.535	0.54
257.671	2.54
257.807	-9.46
257.943	-4.46
258.079	-5.46
258.215	-0.46
258.351	25.54
258.487	13.54
258.623	17.54
258.759	-4.46
258.895	13.54
259.031	-0.46
259.167	-12.46
259.303	13.54
259.439	9.54
259.575	7.54
259.711	7.54
259.847	1.54
259.983	-3.46
260.119	16.54
260.255	-3.46
260.391	-10.46
260.527	20.54
260.663	9.54
260.799	13.54
260.934	-4.46
261.07	-18.46
261.206	-3.46
261.342	-14.46
261.478	15.54
261.614	5.54
261.749	19.54
261.885	-0.46
262.021	16.54
262.157	32.54
262.293	-11.46
262.428	-4.46
262.564	-11.46
262.7	12.54
262.836	8.54
262.971	29.54
263.107	4.54
263.243	23.54
263.378	1.54
263.514	-20.46
263.65	-2.46
263.785	-28.46
263.921	-17.46
264.057	-2.46
264.192	18.54
264.328	19.54
264.464	-2.46
264.599	2.54
264.735	30.54
264.871	-8.46
265.006	5.54
265.142	5.54
265.277	4.54
265.413	29.54
265.548	9.54
265.684	21.54
265.819	-9.46
265.955	-11.46
266.091	-16.46
266.226	-15.46
266.362	-3.46
266.497	1.54
266.633	-10.46
266.768	2.54
266.903	3.54
267.039	12.54
267.174	19.54
267.31	-16.46
267.445	-0.46
267.581	0.54
267.716	39.54
267.851	19.54
267.987	12.54
268.122	15.54
268.258	-3.46
268.393	-4.46
268.528	-6.46
268.664	-1.46
268.799	-4.46
268.934	14.54
269.07	6.54
269.205	-0.46
269.34	4.54
269.476	8.54
269.611	0.54
269.746	12.54
269.881	-5.46
270.017	5.54
270.152	16.54
270.287	6.54
270.422	12.54
270.558	-5.46
270.693	11.54
270.828	-4.46
270.963	0.54
271.098	-0.46
271.234	5.54
271.369	24.54
271.504	7.54
271.639	-18.46
271.774	-5.46
271.909	8.54
272.045	-3.46
272.18	-0.46
272.315	-9.46
272.45	2.54
272.585	-10.46
272.72	11.54
272.855	8.54
272.99	15.54
273.125	-2.46
273.26	-2.46
273.395	-10.46
273.53	-2.46
273.665	20.54
273.8	9.54
273.935	-2.46
274.07	11.54
274.205	8.54
274.34	-13.46
274.475	6.54
274.61	21.54
274.745	-7.46
274.88	17.54
275.015	-5.46
275.15	8.54
275.285	9.54
275.42	13.54
275.555	-2.46
275.69	7.54
275.825	1.54
275.959	4.54
276.094	10.54
276.229	-13.46
276.364	-7.46
276.499	0.54
276.634	-7.46
276.768	-9.46
276.903	5.54
277.038	23.54
277.173	10.54
277.308	8.54
277.442	-4.46
277.577	-5.46
277.712	13.54
277.847	12.54
277.981	-0.46
278.116	-6.46
278.251	10.54
278.386	-0.46
278.52	12.54
278.655	6.54
278.79	13.54
278.924	8.54
279.059	15.54
279.194	-9.46
279.328	38.54
279.463	12.54
279.598	27.54
279.732	14.54
279.867	8.54
280.001	31.54
280.136	19.54
280.271	10.54
280.405	21.54
280.54	19.54
280.674	6.54
280.809	12.54
280.943	1.54
281.078	-2.46
281.213	17.54
281.347	17.54
281.482	7.54
281.616	14.54
281.751	13.54
281.885	-2.46
282.02	10.54
282.154	15.54
282.288	-9.46
282.423	-13.46
282.557	-16.46
282.692	11.54
282.826	-6.46
282.961	10.54
283.095	-1.46
283.229	12.54
283.364	1.54
283.498	4.54
283.633	15.54
283.767	6.54
283.901	9.54
284.036	3.54
284.17	2.54
284.304	-5.46
284.439	3.54
284.573	-5.46
284.707	24.54
284.842	5.54
284.976	4.54
285.11	-1.46
285.244	-6.46
285.379	43.54
285.513	-7.46
285.647	6.54
285.781	-1.46
285.916	11.54
286.05	0.54
286.184	22.54
286.318	21.54
286.453	4.54
286.587	-10.46
286.721	4.54
286.855	24.54
286.989	20.54
287.123	9.54
287.258	-5.46
287.392	-11.46
287.526	20.54
287.66	-9.46
287.794	0.54
287.928	-2.46
288.062	20.54
288.196	10.54
288.33	-0.46
288.464	33.54
288.598	10.54
288.733	26.54
288.867	14.54
289.001	0.54
289.135	15.54
289.269	7.54
289.403	-16.46
289.537	1.54
289.671	11.54
289.805	-0.46
289.939	-6.46
290.073	4.54
290.207	20.54
290.34	-3.46
290.474	17.54
290.608	1.54
290.742	1.54
290.876	-3.46
291.01	3.54
291.144	37.54
291.278	1.54
291.412	18.54
291.546	-6.46
291.679	-5.46
291.813	11.54
291.947	23.54
292.081	6.54
292.215	2.54
292.349	13.54
292.482	22.54
292.616	0.54
292.75	1.54
292.884	1.54
293.018	-0.46
293.151	-8.46
293.285	6.54
293.419	-5.46
293.553	-11.46
293.686	-10.46
293.82	0.54
293.954	16.54
294.088	26.54
294.221	1.54
294.355	1.54
294.489	5.54
294.622	-2.46
294.756	5.54
294.89	21.54
295.023	21.54
295.157	27.54
295.291	9.54
295.424	7.54
295.558	-3.46
295.691	22.54
295.825	16.54
295.959	17.54
296.092	-11.46
296.226	6.54
296.359	6.54
296.493	16.54
296.627	2.54
296.76	10.54
296.894	-0.46
297.027	2.54
297.161	12.54
297.294	-14.46
297.428	-2.46
297.561	35.54
297.695	-3.46
297.828	1.54
297.962	-15.46
298.095	-10.46
298.229	10.54
298.362	-6.46
298.495	-14.46
298.629	-6.46
298.762	-1.46
298.896	-4.46
299.029	-11.46
299.162	-5.46
299.296	-8.46
299.429	-14.46
299.563	5.54
299.696	12.54
299.829	11.54
299.963	21.54
300.096	-0.46
300.229	20.54
300.363	9.54
300.496	6.54
300.629	-2.46
300.763	3.54
300.896	5.54
301.029	6.54
301.162	11.54
301.296	-2.46
301.429	-2.46
301.562	-10.46
301.695	0.54
301.829	19.54
301.962	21.54
302.095	-5.46
302.228	7.54
302.362	4.54
302.495	-5.46
302.628	10.54
302.761	12.54
302.894	12.54
303.027	32.54
303.161	-7.46
303.294	-18.46
303.427	16.54
303.56	19.54
303.693	0.54
303.826	-3.46
303.959	10.54
304.092	6.54
304.225	-8.46
304.359	8.54
304.492	1.54
304.625	-4.46
304.758	34.54
304.891	4.54
305.024	-13.46
305.157	3.54
305.29	-14.46
305.423	0.54
305.556	20.54
305.689	45.54
305.822	2.54
305.955	13.54
306.088	-5.46
306.221	12.54
306.354	-9.46
306.487	1.54
306.62	1.54
306.752	5.54
306.885	12.54
307.018	7.54
307.151	-0.46
307.284	13.54
307.417	-3.46
307.55	4.54
307.683	7.54
307.816	15.54
307.948	-2.46
308.081	14.54
308.214	26.54
308.347	29.54
308.48	13.54
308.613	-19.46
308.745	10.54
308.878	-19.46
309.011	1.54
309.144	4.54
309.277	2.54
309.409	10.54
309.542	8.54
309.675	31.54
309.808	20.54
309.94	20.54
310.073	-21.46
310.206	0.54
310.339	13.54
310.471	0.54
310.604	3.54
310.737	-0.46
310.869	1.54
311.002	5.54
311.135	1.54
311.267	-4.46
311.4	0.54
311.533	10.54
311.665	-3.46
311.798	11.54
311.93	22.54
312.063	26.54
312.196	54.54
312.328	74.54
312.461	63.54
312.593	33.54
312.726	45.54
312.859	92.54
312.991	166.54
313.124	51.54
313.256	15.54
313.389	33.54
313.521	-13.46
313.654	1.54
313.786	-22.46
313.919	-0.46
314.051	6.54
314.184	26.54
314.316	10.54
314.449	-18.46
314.581	1.54
314.714	0.54
314.846	8.54
314.978	-12.46
315.111	-3.46
315.243	0.54
315.376	12.54
315.508	17.54
315.641	7.54
315.773	32.54
315.905	-0.46
316.038	7.54
316.17	0.54
316.302	-1.46
316.435	12.54
316.567	1.54
316.699	21.54
316.832	5.54
316.964	5.54
317.096	1.54
317.229	-21.46
317.361	-26.46
317.493	-14.46
317.625	-18.46
317.758	11.54
317.89	17.54
318.022	13.54
318.155	-11.46
318.287	2.54
318.419	-10.46
318.551	1.54
318.683	4.54
318.816	3.54
318.948	1.54
319.08	-21.46
319.212	5.54
319.344	13.54
319.477	14.54
319.609	-14.46
319.741	22.54
319.873	0.54
320.005	-8.46
320.137	-6.46
320.269	13.54
320.401	20.54
320.534	10.54
320.666	1.54
320.798	-6.46
320.93	4.54
321.062	-13.46
321.194	-3.46
321.326	12.54
321.458	-0.46
321.59	11.54
321.722	3.54
321.854	-2.46
321.986	7.54
322.118	2.54
322.25	-6.46
322.382	7.54
322.514	-5.46
322.646	-9.46
322.778	18.54
322.91	-9.46
323.042	12.54
323.174	-12.46
323.306	-12.46
323.438	-3.46
323.57	4.54
323.702	2.54
323.834	-3.46
323.966	11.54
324.097	15.54
324.229	21.54
324.361	20.54
324.493	4.54
324.625	-10.46
324.757	8.54
324.889	13.54
325.021	13.54
325.152	19.54
325.284	25.54
325.416	14.54
325.548	9.54
325.68	-17.46
325.811	14.54
325.943	22.54
326.075	-11.46
326.207	8.54
326.339	20.54
326.47	5.54
326.602	9.54
326.734	5.54
326.866	21.54
326.997	-9.46
327.129	-10.46
327.261	-5.46
327.392	10.54
327.524	3.54
327.656	-3.46
327.787	16.54
327.919	4.54
328.051	17.54
328.182	9.54
328.314	4.54
328.446	-0.46
328.577	21.54
328.709	18.54
328.841	-16.46
328.972	-7.46
329.104	-4.46
329.235	0.54
329.367	-3.46
329.499	16.54
329.63	15.54
329.762	14.54
329.893	18.54
330.025	-6.46
330.156	-22.46
330.288	13.54
330.419	1.54
330.551	18.54
330.683	9.54
330.814	-13.46
330.946	22.54
331.077	-5.46
331.208	-1.46
331.34	4.54
331.471	-0.46
331.603	8.54
331.734	-9.46
331.866	5.54
331.997	19.54
332.129	10.54
332.26	-0.46
332.392	24.54
332.523	1.54
332.654	-10.46
332.786	-13.46
332.917	-3.46
333.048	25.54
333.18	18.54
333.311	-4.46
333.443	-3.46
333.574	14.54
333.705	40.54
333.837	42.54
333.968	104.54
334.099	227.54
334.231	212.54
334.362	29.54
334.493	20.54
334.624	13.54
334.756	10.54
334.887	10.54
335.018	13.54
335.15	14.54
335.281	8.54
335.412	29.54
335.543	15.54
335.675	23.54
335.806	9.54
335.937	-2.46
336.068	4.54
336.199	46.54
336.331	-4.46
336.462	7.54
336.593	18.54
336.724	5.54
336.855	22.54
336.986	18.54
337.118	7.54
337.249	21.54
337.38	22.54
337.511	7.54
337.642	16.54
337.773	22.54
337.904	29.54
338.035	19.54
338.166	7.54
338.298	-0.46
338.429	7.54
338.56	12.54
338.691	8.54
338.822	-1.46
338.953	1.54
339.084	23.54
339.215	16.54
339.346	6.54
339.477	10.54
339.608	16.54
339.739	1.54
339.87	1.54
340.001	10.54
340.132	6.54
340.263	17.54
340.394	37.54
340.525	10.54
340.656	3.54
340.787	-1.46
340.918	36.54
341.049	22.54
341.179	19.54
341.31	14.54
341.441	34.54
341.572	14.54
341.703	21.54
341.834	19.54
341.965	21.54
342.096	20.54
342.227	8.54
342.357	16.54
342.488	6.54
342.619	11.54
342.75	20.54
342.881	0.54
343.012	40.54
343.142	31.54
343.273	4.54
343.404	14.54
343.535	56.54
343.666	46.54
343.796	35.54
343.927	44.54
344.058	32.54
344.189	42.54
344.319	13.54
344.45	28.54
344.581	36.54
344.712	25.54
344.842	16.54
344.973	22.54
345.104	25.54
345.234	26.54
345.365	5.54
345.496	21.54
345.626	25.54
345.757	33.54
345.888	21.54
346.018	28.54
346.149	23.54
346.28	37.54
346.41	27.54
346.541	48.54
346.672	10.54
346.802	31.54
346.933	37.54
347.063	25.54
347.194	25.54
347.325	17.54
347.455	33.54
347.586	22.54
347.716	15.54
347.847	44.54
347.977	40.54
348.108	54.54
348.238	50.54
348.369	35.54
348.499	39.54
348.63	41.54
348.76	31.54
348.891	54.54
349.021	48.54
349.152	61.54
349.282	72.54
349.413	28.54
349.543	45.54
349.674	42.54
349.804	17.54
349.935	6.54
350.065	28.54
350.196	16.54
350.326	27.54
350.456	21.54
350.587	18.54
350.717	21.54
350.848	28.54
350.978	36.54
351.108	10.54
351.239	20.54
351.369	8.54
351.499	19.54
351.63	24.54
351.76	24.54
351.89	29.54
352.021	10.54
352.151	36.54
352.281	32.54
352.412	27.54
352.542	25.54
352.672	29.54
352.803	13.54
352.933	5.54
353.063	26.54
353.193	40.54
353.324	44.54
353.454	39.54
353.584	29.54
353.714	8.54
353.845	23.54
353.975	5.54
354.105	19.54
354.235	15.54
354.365	16.54
354.496	7.54
354.626	19.54
354.756	29.54
354.886	18.54
355.016	36.54
355.146	20.54
355.277	22.54
355.407	11.54
355.537	29.54
355.667	30.54
355.797	19.54
355.927	12.54
356.057	15.54
356.187	18.54
356.318	18.54
356.448	49.54
356.578	31.54
356.708	31.54
356.838	14.54
356.968	27.54
357.098	40.54
357.228	42.54
357.358	30.54
357.488	14.54
357.618	57.54
357.748	33.54
357.878	12.54
358.008	24.54
358.138	32.54
358.268	20.54
358.398	36.54
358.528	15.54
358.658	19.54
358.788	19.54
358.918	32.54
359.048	11.54
359.178	25.54
359.308	37.54
359.438	42.54
359.568	28.54
359.698	37.54
359.827	20.54
359.957	27.54
360.087	18.54
360.217	23.54
360.347	53.54
360.477	38.54
360.607	3.54
360.737	31.54
360.866	25.54
360.996	6.54
361.126	4.54
361.256	67.54
361.386	41.54
361.516	43.54
361.645	8.54
361.775	33.54
361.905	22.54
362.035	43.54
362.165	27.54
362.294	36.54
362.424	54.54
362.554	47.54
362.684	16.54
362.813	49.54
362.943	48.54
363.073	34.54
363.203	69.54
363.332	80.54
363.462	80.54
363.592	104.54
363.721	120.54
363.851	150.54
363.981	195.54
364.111	238.54
364.24	325.54
364.37	461.54
364.5	834.54
364.629	1799.54
364.759	3818.54
364.888	6118.54
365.018	9195.54
365.148	14725.54
365.277	12809.54
365.407	4658.54
365.537	3077.54
365.666	3963.54
365.796	1773.54
365.925	785.54
366.055	743.54
366.184	1046.54
366.314	1404.54
366.444	2422.54
366.573	2081.54
366.703	649.54
366.832	194.54
366.962	122.54
367.091	78.54
367.221	62.54
367.35	69.54
367.48	79.54
367.609	53.54
367.739	57.54
367.868	45.54
367.998	52.54
368.127	50.54
368.257	38.54
368.386	63.54
368.516	59.54
368.645	61.54
368.775	54.54
368.904	31.54
369.033	29.54
369.163	23.54
369.292	40.54
369.422	34.54
369.551	46.54
369.68	39.54
369.81	29.54
369.939	26.54
370.069	43.54
370.198	41.54
370.327	15.54
370.457	53.54
370.586	46.54
370.715	48.54
370.845	50.54
370.974	26.54
371.103	48.54
371.233	57.54
371.362	26.54
371.491	37.54
371.621	41.54
371.75	54.54
371.879	41.54
372.008	69.54
372.138	54.54
372.267	63.54
372.396	53.54
372.525	28.54
372.655	27.54
372.784	40.54
372.913	31.54
373.042	28.54
373.172	47.54
373.301	15.54
373.43	3.54
373.559	27.54
373.688	38.54
373.818	12.54
373.947	23.54
374.076	13.54
374.205	27.54
374.334	26.54
374.463	14.54
374.593	11.54
374.722	34.54
374.851	36.54
374.98	11.54
375.109	12.54
375.238	39.54
375.367	39.54
375.496	11.54
375.625	14.54
375.755	25.54
375.884	25.54
376.013	26.54
376.142	7.54
376.271	10.54
376.4	28.54
376.529	25.54
376.658	28.54
376.787	34.54
376.916	29.54
377.045	9.54
377.174	24.54
377.303	15.54
377.432	34.54
377.561	30.54
377.69	39.54
377.819	48.54
377.948	31.54
378.077	4.54
378.206	14.54
378.335	1.54
378.464	25.54
378.593	29.54
378.722	13.54
378.851	-3.46
378.98	18.54
379.108	-5.46
379.237	8.54
379.366	39.54
379.495	33.54
379.624	14.54
379.753	20.54
379.882	32.54
380.011	8.54
380.14	21.54
380.268	40.54
380.397	21.54
380.526	35.54
380.655	19.54
380.784	-11.46
380.913	-5.46
381.041	10.54
381.17	-8.46
381.299	10.54
381.428	20.54
381.557	12.54
381.685	23.54
381.814	34.54
381.943	5.54
382.072	19.54
382.2	15.54
382.329	28.54
382.458	31.54
382.587	33.54
382.715	29.54
382.844	23.54
382.973	16.54
383.102	0.54
383.23	-1.46
383.359	-0.46
383.488	25.54
383.616	12.54
383.745	-1.46
383.874	19.54
384.003	2.54
384.131	12.54
384.26	4.54
384.389	40.54
384.517	10.54
384.646	1.54
384.774	5.54
384.903	43.54
385.032	22.54
385.16	35.54
385.289	21.54
385.418	29.54
385.546	23.54
385.675	57.54
385.803	27.54
385.932	20.54
386.06	8.54
386.189	14.54
386.318	24.54
386.446	1.54
386.575	18.54
386.703	14.54
386.832	12.54
386.96	13.54
387.089	21.54
387.217	30.54
387.346	4.54
387.474	20.54
387.603	24.54
387.731	28.54
387.86	28.54
387.988	26.54
388.117	24.54
388.245	13.54
388.374	21.54
388.502	21.54
388.631	25.54
388.759	29.54
388.888	27.54
389.016	13.54
389.144	20.54
389.273	22.54
389.401	36.54
389.53	14.54
389.658	43.54
389.786	13.54
389.915	8.54
390.043	-7.46
390.172	23.54
390.3	46.54
390.428	40.54
390.557	28.54
390.685	40.54
390.813	50.54
390.942	32.54
391.07	19.54
391.198	15.54
391.327	6.54
391.455	21.54
391.583	53.54
391.712	38.54
391.84	40.54
391.968	16.54
392.096	9.54
392.225	18.54
392.353	30.54
392.481	30.54
392.609	32.54
392.738	27.54
392.866	34.54
392.994	16.54
393.122	53.54
393.251	20.54
393.379	18.54
393.507	31.54
393.635	19.54
393.764	40.54
393.892	41.54
394.02	21.54
394.148	27.54
394.276	20.54
394.404	53.54
394.533	18.54
394.661	29.54
394.789	41.54
394.917	44.54
395.045	21.54
395.173	35.54
395.302	26.54
395.43	40.54
395.558	40.54
395.686	26.54
395.814	27.54
395.942	15.54
396.07	50.54
396.198	24.54
396.326	44.54
396.454	46.54
396.582	29.54
396.711	16.54
396.839	46.54
396.967	33.54
397.095	32.54
397.223	36.54
397.351	49.54
397.479	49.54
397.607	35.54
397.735	52.54
397.863	48.54
397.991	47.54
398.119	44.54
398.247	46.54
398.375	60.54
398.503	44.54
398.631	48.54
398.759	62.54
398.887	49.54
399.015	38.54
399.143	51.54
399.271	55.54
399.399	77.54
399.526	64.54
399.654	84.54
399.782	61.54
399.91	108.54
400.038	107.54
400.166	81.54
400.294	91.54
400.422	86.54
400.55	120.54
400.678	88.54
400.805	86.54
400.933	108.54
401.061	121.54
401.189	113.54
401.317	150.54
401.445	109.54
401.573	83.54
401.7	48.54
401.828	50.54
401.956	39.54
402.084	45.54
402.212	20.54
402.34	29.54
402.467	28.54
402.595	47.54
402.723	40.54
402.851	72.54
402.978	58.54
403.106	82.54
403.234	79.54
403.362	120.54
403.489	115.54
403.617	167.54
403.745	196.54
403.873	295.54
404	568.54
404.128	1433.54
404.256	3817.54
404.384	4951.54
404.511	5328.54
404.639	7051.54
404.767	11212.54
404.894	14504.54
405.022	4861.54
405.15	1286.54
405.277	410.54
405.405	236.54
405.533	123.54
405.66	100.54
405.788	53.54
405.916	58.54
406.043	54.54
406.171	49.54
406.299	61.54
406.426	68.54
406.554	49.54
406.681	69.54
406.809	58.54
406.937	57.54
407.064	56.54
407.192	132.54
407.319	288.54
407.447	513.54
407.574	537.54
407.702	618.54
407.83	822.54
407.957	1602.54
408.085	928.54
408.212	274.54
408.34	106.54
408.467	53.54
408.595	45.54
408.722	54.54
408.85	42.54
408.977	18.54
409.105	28.54
409.232	36.54
409.36	32.54
409.487	43.54
409.615	37.54
409.742	27.54
409.87	24.54
409.997	48.54
410.125	35.54
410.252	57.54
410.379	28.54
410.507	50.54
410.634	45.54
410.762	40.54
410.889	37.54
411.017	29.54
411.144	45.54
411.271	21.54
411.399	34.54
411.526	35.54
411.653	27.54
411.781	36.54
411.908	30.54
412.036	28.54
412.163	43.54
412.29	36.54
412.418	30.54
412.545	26.54
412.672	21.54
412.8	49.54
412.927	33.54
413.054	49.54
413.182	25.54
413.309	25.54
413.436	31.54
413.564	44.54
413.691	27.54
413.818	31.54
413.945	17.54
414.073	39.54
414.2	26.54
414.327	34.54
414.454	40.54
414.582	33.54
414.709	8.54
414.836	21.54
414.963	23.54
415.091	25.54
415.218	24.54
415.345	30.54
415.472	28.54
415.6	23.54
415.727	36.54
415.854	48.54
415.981	27.54
416.108	20.54
416.236	16.54
416.363	24.54
416.49	34.54
416.617	39.54
416.744	30.54
416.871	28.54
416.998	33.54
417.126	37.54
417.253	23.54
417.38	39.54
417.507	34.54
417.634	52.54
417.761	33.54
417.888	39.54
418.015	29.54
418.143	18.54
418.27	65.54
418.397	25.54
418.524	37.54
418.651	24.54
418.778	31.54
418.905	49.54
419.032	36.54
419.159	38.54
419.286	69.54
419.413	48.54
419.54	52.54
419.667	32.54
419.794	35.54
419.921	41.54
420.048	53.54
420.175	45.54
420.302	46.54
420.429	68.54
420.556	59.54
420.683	40.54
420.81	45.54
420.937	61.54
421.064	59.54
421.191	69.54
421.318	90.54
421.445	98.54
421.572	23.54
421.699	59.54
421.826	52.54
421.953	31.54
422.08	28.54
422.207	19.54
422.334	13.54
422.461	25.54
422.588	30.54
422.714	37.54
422.841	35.54
422.968	17.54
423.095	13.54
423.222	22.54
423.349	22.54
423.476	16.54
423.603	14.54
423.729	9.54
423.856	12.54
423.983	21.54
424.11	9.54
424.237	22.54
424.364	32.54
424.491	26.54
424.617	0.54
424.744	11.54
424.871	26.54
424.998	1.54
425.125	17.54
425.251	31.54
425.378	6.54
425.505	15.54
425.632	24.54
425.758	12.54
425.885	21.54
426.012	25.54
426.139	34.54
426.266	18.54
426.392	20.54
426.519	21.54
426.646	13.54
426.772	29.54
426.899	5.54
427.026	26.54
427.153	25.54
427.279	38.54
427.406	34.54
427.533	15.54
427.659	26.54
427.786	0.54
427.913	20.54
428.039	28.54
428.166	11.54
428.293	29.54
428.419	24.54
428.546	28.54
428.673	17.54
428.799	1.54
428.926	10.54
429.053	33.54
429.179	28.54
429.306	21.54
429.433	23.54
429.559	37.54
429.686	36.54
429.812	16.54
429.939	34.54
430.066	22.54
430.192	15.54
430.319	35.54
430.445	23.54
430.572	20.54
430.699	15.54
430.825	15.54
430.952	33.54
431.078	28.54
431.205	41.54
431.331	36.54
431.458	38.54
431.584	42.54
431.711	28.54
431.837	20.54
431.964	15.54
432.09	35.54
432.217	16.54
432.343	24.54
432.47	45.54
432.596	31.54
432.723	25.54
432.849	15.54
432.976	33.54
433.102	32.54
433.229	26.54
433.355	52.54
433.482	85.54
433.608	110.54
433.735	105.54
433.861	107.54
433.987	155.54
434.114	182.54
434.24	142.54
434.367	195.54
434.493	205.54
434.62	280.54
434.746	376.54
434.872	605.54
434.999	803.54
435.125	1697.54
435.252	5460.54
435.378	13278.54
435.504	15134.54
435.631	15338.54
435.757	15683.54
435.883	15683.54
436.01	15683.54
436.136	15683.54
436.262	15683.54
436.389	3389.54
436.515	1827.54
436.641	754.54
436.768	618.54
436.894	389.54
437.02	352.54
437.147	282.54
437.273	286.54
437.399	215.54
437.526	234.54
437.652	166.54
437.778	192.54
437.904	129.54
438.031	162.54
438.157	141.54
438.283	154.54
438.409	109.54
438.536	111.54
438.662	137.54
438.788	139.54
438.914	116.54
439.041	104.54
439.167	114.54
439.293	90.54
439.419	89.54
439.546	95.54
439.672	78.54
439.798	90.54
439.924	69.54
440.05	72.54
440.177	78.54
440.303	64.54
440.429	56.54
440.555	71.54
440.681	52.54
440.807	79.54
440.934	49.54
441.06	66.54
441.186	55.54
441.312	60.54
441.438	54.54
441.564	71.54
441.69	88.54
441.816	72.54
441.943	38.54
442.069	51.54
442.195	55.54
442.321	43.54
442.447	39.54
442.573	42.54
442.699	37.54
442.825	36.54
442.951	54.54
443.077	61.54
443.203	62.54
443.33	57.54
443.456	34.54
443.582	39.54
443.708	44.54
443.834	73.54
443.96	50.54
444.086	46.54
444.212	61.54
444.338	70.54
444.464	47.54
444.59	63.54
444.716	32.54
444.842	38.54
444.968	26.54
445.094	48.54
445.22	25.54
445.346	25.54
445.472	39.54
445.598	46.54
445.724	21.54
445.85	34.54
445.976	29.54
446.102	52.54
446.228	35.54
446.354	35.54
446.48	24.54
446.605	38.54
446.731	47.54
446.857	42.54
446.983	47.54
447.109	39.54
447.235	33.54
447.361	26.54
447.487	27.54
447.613	30.54
447.739	33.54
447.865	19.54
447.99	32.54
448.116	43.54
448.242	41.54
448.368	36.54
448.494	27.54
448.62	11.54
448.746	29.54
448.872	40.54
448.997	11.54
449.123	4.54
449.249	45.54
449.375	49.54
449.501	35.54
449.627	24.54
449.752	46.54
449.878	27.54
450.004	16.54
450.13	27.54
450.256	34.54
450.381	27.54
450.507	20.54
450.633	33.54
450.759	32.54
450.884	24.54
451.01	41.54
451.136	24.54
451.262	16.54
451.388	38.54
451.513	25.54
451.639	37.54
451.765	24.54
451.89	46.54
452.016	23.54
452.142	38.54
452.268	23.54
452.393	8.54
452.519	12.54
452.645	36.54
452.771	9.54
452.896	-8.46
453.022	14.54
453.148	31.54
453.273	32.54
453.399	18.54
453.525	8.54
453.65	21.54
453.776	33.54
453.902	35.54
454.027	41.54
454.153	43.54
454.279	27.54
454.404	13.54
454.53	40.54
454.656	50.54
454.781	21.54
454.907	23.54
455.032	20.54
455.158	42.54
455.284	38.54
455.409	33.54
455.535	38.54
455.66	22.54
455.786	31.54
455.912	30.54
456.037	17.54
456.163	37.54
456.288	46.54
456.414	11.54
456.539	7.54
456.665	29.54
456.791	18.54
456.916	19.54
457.042	21.54
457.167	11.54
457.293	38.54
457.418	22.54
457.544	25.54
457.669	33.54
457.795	39.54
457.92	34.54
458.046	25.54
458.171	21.54
458.297	10.54
458.422	25.54
458.548	18.54
458.673	31.54
458.799	27.54
458.924	15.54
459.05	29.54
459.175	24.54
459.301	26.54
459.426	29.54
459.552	32.54
459.677	7.54
459.803	34.54
459.928	35.54
460.053	28.54
460.179	10.54
460.304	34.54
460.43	20.54
460.555	45.54
460.681	29.54
460.806	36.54
460.931	26.54
461.057	37.54
461.182	21.54
461.308	37.54
461.433	40.54
461.558	9.54
461.684	33.54
461.809	46.54
461.934	33.54
462.06	23.54
462.185	13.54
462.311	32.54
462.436	37.54
462.561	25.54
462.687	17.54
462.812	29.54
462.937	14.54
463.063	20.54
463.188	19.54
463.313	27.54
463.439	37.54
463.564	14.54
463.689	19.54
463.814	27.54
463.94	13.54
464.065	29.54
464.19	58.54
464.316	16.54
464.441	18.54
464.566	7.54
464.692	11.54
464.817	27.54
464.942	9.54
465.067	40.54
465.193	-7.46
465.318	22.54
465.443	21.54
465.568	31.54
465.694	25.54
465.819	51.54
465.944	29.54
466.069	46.54
466.194	22.54
466.32	31.54
466.445	31.54
466.57	8.54
466.695	20.54
466.82	40.54
466.946	38.54
467.071	33.54
467.196	4.54
467.321	28.54
467.446	22.54
467.572	17.54
467.697	18.54
467.822	32.54
467.947	42.54
468.072	21.54
468.197	33.54
468.323	27.54
468.448	24.54
468.573	20.54
468.698	25.54
468.823	31.54
468.948	38.54
469.073	26.54
469.198	32.54
469.324	56.54
469.449	41.54
469.574	36.54
469.699	42.54
469.824	43.54
469.949	40.54
470.074	44.54
470.199	55.54
470.324	57.54
470.449	37.54
470.574	37.54
470.7	32.54
470.825	51.54
470.95	46.54
471.075	20.54
471.2	44.54
471.325	50.54
471.45	37.54
471.575	16.54
471.7	36.54
471.825	25.54
471.95	21.54
472.075	24.54
472.2	24.54
472.325	20.54
472.45	-1.46
472.575	20.54
472.7	41.54
472.825	40.54
472.95	48.54
473.075	39.54
473.2	51.54
473.325	53.54
473.45	30.54
473.575	49.54
473.7	55.54
473.825	29.54
473.95	31.54
474.075	38.54
474.2	22.54
474.325	14.54
474.45	37.54
474.574	15.54
474.699	42.54
474.824	45.54
474.949	8.54
475.074	14.54
475.199	37.54
475.324	24.54
475.449	-2.46
475.574	20.54
475.699	15.54
475.824	34.54
475.949	10.54
476.073	14.54
476.198	5.54
476.323	37.54
476.448	12.54
476.573	9.54
476.698	27.54
476.823	20.54
476.947	22.54
477.072	20.54
477.197	30.54
477.322	10.54
477.447	22.54
477.572	18.54
477.697	7.54
477.821	15.54
477.946	20.54
478.071	21.54
478.196	33.54
478.321	12.54
478.445	10.54
478.57	8.54
478.695	21.54
478.82	19.54
478.945	34.54
479.069	7.54
479.194	17.54
479.319	32.54
479.444	30.54
479.569	19.54
479.693	23.54
479.818	42.54
479.943	21.54
480.068	15.54
480.192	22.54
480.317	18.54
480.442	19.54
480.567	7.54
480.691	1.54
480.816	5.54
480.941	15.54
481.066	21.54
481.19	30.54
481.315	30.54
481.44	-1.46
481.564	-5.46
481.689	34.54
481.814	30.54
481.938	26.54
482.063	10.54
482.188	24.54
482.313	41.54
482.437	8.54
482.562	12.54
482.687	2.54
482.811	27.54
482.936	21.54
483.061	28.54
483.185	30.54
483.31	21.54
483.435	27.54
483.559	20.54
483.684	9.54
483.808	36.54
483.933	36.54
484.058	18.54
484.182	21.54
484.307	21.54
484.432	30.54
484.556	17.54
484.681	9.54
484.805	30.54
484.93	19.54
485.055	30.54
485.179	53.54
485.304	29.54
485.428	18.54
485.553	19.54
485.678	25.54
485.802	19.54
485.927	42.54
486.051	21.54
486.176	23.54
486.3	13.54
486.425	6.54
486.549	28.54
486.674	55.54
486.799	37.54
486.923	18.54
487.048	21.54
487.172	20.54
487.297	10.54
487.421	21.54
487.546	23.54
487.67	34.54
487.795	8.54
487.919	29.54
488.044	35.54
488.168	32.54
488.293	17.54
488.417	2.54
488.542	26.54
488.666	22.54
488.791	26.54
488.915	11.54
489.04	22.54
489.164	25.54
489.289	49.54
489.413	0.54
489.538	12.54
489.662	30.54
489.786	16.54
489.911	50.54
490.035	41.54
490.16	15.54
490.284	20.54
490.409	29.54
490.533	28.54
490.658	38.54
490.782	20.54
490.906	34.54
491.031	94.54
491.155	138.54
491.28	134.54
491.404	163.54
491.528	258.54
491.653	146.54
491.777	75.54
491.902	30.54
492.026	42.54
492.15	31.54
492.275	31.54
492.399	25.54
492.524	5.54
492.648	34.54
492.772	32.54
492.897	33.54
493.021	25.54
493.145	31.54
493.27	27.54
493.394	17.54
493.518	9.54
493.643	13.54
493.767	50.54
493.891	6.54
494.016	20.54
494.14	30.54
494.264	19.54
494.389	39.54
494.513	0.54
494.637	1.54
494.762	48.54
494.886	20.54
495.01	15.54
495.134	36.54
495.259	22.54
495.383	21.54
495.507	31.54
495.632	52.54
495.756	40.54
495.88	54.54
496.004	17.54
496.129	14.54
496.253	24.54
496.377	31.54
496.501	30.54
496.626	3.54
496.75	8.54
496.874	14.54
496.998	21.54
497.123	28.54
497.247	-5.46
497.371	6.54
497.495	9.54
497.62	15.54
497.744	10.54
497.868	12.54
497.992	16.54
498.116	13.54
498.241	13.54
498.365	-2.46
498.489	19.54
498.613	31.54
498.737	12.54
498.862	20.54
498.986	5.54
499.11	12.54
499.234	11.54
499.358	6.54
499.482	18.54
499.607	4.54
499.731	14.54
499.855	30.54
499.979	26.54
500.103	29.54
500.227	34.54
500.351	23.54
500.476	-2.46
500.6	6.54
500.724	16.54
500.848	23.54
500.972	36.54
501.096	21.54
501.22	27.54
501.344	13.54
501.469	-4.46
501.593	20.54
501.717	16.54
501.841	14.54
501.965	34.54
502.089	4.54
502.213	24.54
502.337	33.54
502.461	22.54
502.585	25.54
502.709	16.54
502.834	29.54
502.958	18.54
503.082	26.54
503.206	39.54
503.33	36.54
503.454	31.54
503.578	48.54
503.702	58.54
503.826	28.54
503.95	35.54
504.074	28.54
504.198	19.54
504.322	18.54
504.446	2.54
504.57	2.54
504.694	40.54
504.818	30.54
504.942	45.54
505.066	38.54
505.19	29.54
505.314	35.54
505.438	30.54
505.562	25.54
505.686	24.54
505.81	20.54
505.934	29.54
506.058	22.54
506.182	27.54
506.306	22.54
506.43	29.54
506.554	22.54
506.678	13.54
506.802	12.54
506.926	25.54
507.05	32.54
507.174	16.54
507.298	24.54
507.422	34.54
507.546	13.54
507.67	22.54
507.794	7.54
507.918	13.54
508.042	0.54
508.165	14.54
508.289	28.54
508.413	21.54
508.537	17.54
508.661	26.54
508.785	35.54
508.909	36.54
509.033	24.54
509.157	14.54
509.281	22.54
509.405	31.54
509.528	48.54
509.652	47.54
509.776	21.54
509.9	36.54
510.024	30.54
510.148	39.54
510.272	29.54
510.396	39.54
510.519	16.54
510.643	48.54
510.767	30.54
510.891	26.54
511.015	36.54
511.139	45.54
511.263	50.54
511.386	54.54
511.51	59.54
511.634	45.54
511.758	51.54
511.882	24.54
512.006	45.54
512.129	64.54
512.253	96.54
512.377	73.54
512.501	53.54
512.625	80.54
512.748	87.54
512.872	85.54
512.996	45.54
513.12	46.54
513.244	60.54
513.367	70.54
513.491	69.54
513.615	61.54
513.739	68.54
513.862	93.54
513.986	82.54
514.11	106.54
514.234	76.54
514.358	104.54
514.481	136.54
514.605	108.54
514.729	126.54
514.853	105.54
514.976	116.54
515.1	103.54
515.224	119.54
515.348	84.54
515.471	87.54
515.595	106.54
515.719	128.54
515.842	198.54
515.966	275.54
516.09	300.54
516.214	279.54
516.337	336.54
516.461	214.54
516.585	86.54
516.708	50.54
516.832	37.54
516.956	24.54
517.08	19.54
517.203	5.54
517.327	22.54
517.451	28.54
517.574	52.54
517.698	16.54
517.822	33.54
517.945	33.54
518.069	32.54
518.193	28.54
518.316	26.54
518.44	25.54
518.564	14.54
518.687	6.54
518.811	19.54
518.935	56.54
519.058	18.54
519.182	13.54
519.306	20.54
519.429	7.54
519.553	50.54
519.676	34.54
519.8	17.54
519.924	13.54
520.047	25.54
520.171	13.54
520.294	20.54
520.418	20.54
520.542	-13.46
520.665	16.54
520.789	28.54
520.913	-3.46
521.036	6.54
521.16	5.54
521.283	26.54
521.407	4.54
521.53	12.54
521.654	6.54
521.778	18.54
521.901	23.54
522.025	25.54
522.148	18.54
522.272	31.54
522.395	8.54
522.519	23.54
522.643	0.54
522.766	29.54
522.89	21.54
523.013	29.54
523.137	5.54
523.26	11.54
523.384	26.54
523.507	23.54
523.631	21.54
523.754	17.54
523.878	13.54
524.002	18.54
524.125	14.54
524.249	12.54
524.372	24.54
524.496	12.54
524.619	13.54
524.743	17.54
524.866	8.54
524.99	4.54
525.113	12.54
525.237	23.54
525.36	17.54
525.484	16.54
525.607	7.54
525.731	-0.46
525.854	26.54
525.978	37.54
526.101	9.54
526.224	18.54
526.348	24.54
526.471	24.54
526.595	12.54
526.718	10.54
526.842	11.54
526.965	44.54
527.089	16.54
527.212	14.54
527.336	37.54
527.459	12.54
527.582	22.54
527.706	24.54
527.829	27.54
527.953	18.54
528.076	13.54
528.2	25.54
528.323	36.54
528.446	34.54
528.57	32.54
528.693	24.54
528.817	9.54
528.94	28.54
529.064	26.54
529.187	11.54
529.31	25.54
529.434	9.54
529.557	-2.46
529.68	2.54
529.804	8.54
529.927	30.54
530.051	28.54
530.174	9.54
530.297	8.54
530.421	32.54
530.544	34.54
530.668	34.54
530.791	5.54
530.914	43.54
531.038	30.54
531.161	20.54
531.284	14.54
531.408	21.54
531.531	8.54
531.654	17.54
531.778	15.54
531.901	11.54
532.024	26.54
532.148	21.54
532.271	10.54
532.394	5.54
532.518	22.54
532.641	12.54
532.764	20.54
532.888	9.54
533.011	8.54
533.134	14.54
533.258	34.54
533.381	13.54
533.504	15.54
533.628	25.54
533.751	11.54
533.874	23.54
533.997	20.54
534.121	15.54
534.244	13.54
534.367	2.54
534.491	4.54
534.614	13.54
534.737	15.54
534.86	27.54
534.984	20.54
535.107	13.54
535.23	19.54
535.354	13.54
535.477	11.54
535.6	26.54
535.723	19.54
535.847	39.54
535.97	16.54
536.093	34.54
536.216	13.54
536.34	11.54
536.463	13.54
536.586	18.54
536.709	28.54
536.833	21.54
536.956	14.54
537.079	9.54
537.202	30.54
537.325	24.54
537.449	9.54
537.572	31.54
537.695	11.54
537.818	14.54
537.941	4.54
538.065	22.54
538.188	30.54
538.311	31.54
538.434	28.54
538.558	10.54
538.681	16.54
538.804	32.54
538.927	52.54
539.05	27.54
539.173	23.54
539.297	21.54
539.42	32.54
539.543	23.54
539.666	33.54
539.789	31.54
539.913	45.54
540.036	27.54
540.159	16.54
540.282	12.54
540.405	1.54
540.528	28.54
540.651	29.54
540.775	30.54
540.898	19.54
541.021	22.54
541.144	32.54
541.267	33.54
541.39	25.54
541.513	34.54
541.637	29.54
541.76	29.54
541.883	24.54
542.006	41.54
542.129	49.54
542.252	42.54
542.375	58.54
542.498	37.54
542.622	50.54
542.745	58.54
542.868	29.54
542.991	52.54
543.114	50.54
543.237	56.54
543.36	64.54
543.483	46.54
543.606	73.54
543.73	78.54
543.853	74.54
543.976	94.54
544.099	122.54
544.222	129.54
544.345	128.54
544.468	179.54
544.591	204.54
544.714	283.54
544.837	340.54
544.96	446.54
545.083	648.54
545.206	1068.54
545.329	2384.54
545.453	10811.54
545.576	15223.54
545.699	15683.54
545.822	15683.54
545.945	15683.54
546.068	15683.54
546.191	15683.54
546.314	15683.54
546.437	15683.54
546.56	15683.54
546.683	15683.54
546.806	15683.54
546.929	15683.54
547.052	15683.54
547.175	15683.54
547.298	15683.54
547.421	15683.54
547.544	15683.54
547.667	3398.54
547.79	1705.54
547.913	872.54
548.036	871.54
548.159	615.54
548.282	632.54
548.405	457.54
548.528	450.54
548.651	388.54
548.774	368.54
548.897	323.54
549.02	338.54
549.143	312.54
549.266	279.54
549.389	263.54
549.512	240.54
549.635	247.54
549.758	238.54
549.881	210.54
550.004	205.54
550.127	190.54
550.25	204.54
550.373	172.54
550.496	196.54
550.619	155.54
550.742	156.54
550.865	121.54
550.988	165.54
551.111	164.54
551.234	158.54
551.356	109.54
551.479	119.54
551.602	129.54
551.725	127.54
551.848	144.54
551.971	148.54
552.094	125.54
552.217	106.54
552.34	108.54
552.463	80.54
552.586	98.54
552.709	83.54
552.832	102.54
552.955	108.54
553.077	107.54
553.2	117.54
553.323	85.54
553.446	86.54
553.569	85.54
553.692	112.54
553.815	112.54
553.938	108.54
554.061	97.54
554.184	85.54
554.306	94.54
554.429	84.54
554.552	99.54
554.675	50.54
554.798	71.54
554.921	85.54
555.044	66.54
555.167	69.54
555.29	61.54
555.412	71.54
555.535	59.54
555.658	65.54
555.781	71.54
555.904	75.54
556.027	80.54
556.15	80.54
556.272	85.54
556.395	88.54
556.518	63.54
556.641	78.54
556.764	86.54
556.887	81.54
557.01	70.54
557.132	72.54
557.255	61.54
557.378	75.54
557.501	78.54
557.624	79.54
557.747	84.54
557.869	76.54
557.992	85.54
558.115	94.54
558.238	80.54
558.361	97.54
558.483	88.54
558.606	73.54
558.729	37.54
558.852	61.54
558.975	76.54
559.098	74.54
559.22	56.54
559.343	44.54
559.466	45.54
559.589	33.54
559.712	48.54
559.834	48.54
559.957	49.54
560.08	46.54
560.203	61.54
560.325	72.54
560.448	81.54
560.571	48.54
560.694	42.54
560.817	75.54
560.939	50.54
561.062	46.54
561.185	69.54
561.308	55.54
561.43	62.54
561.553	76.54
561.676	42.54
561.799	64.54
561.921	66.54
562.044	61.54
562.167	56.54
562.29	56.54
562.413	66.54
562.535	63.54
562.658	35.54
562.781	71.54
562.903	69.54
563.026	76.54
563.149	135.54
563.272	131.54
563.394	102.54
563.517	85.54
563.64	64.54
563.763	60.54
563.885	41.54
564.008	36.54
564.131	46.54
564.254	37.54
564.376	38.54
564.499	40.54
564.622	27.54
564.744	50.54
564.867	37.54
564.99	26.54
565.113	42.54
565.235	34.54
565.358	22.54
565.481	15.54
565.603	24.54
565.726	38.54
565.849	38.54
565.971	26.54
566.094	29.54
566.217	24.54
566.34	33.54
566.462	42.54
566.585	41.54
566.708	50.54
566.83	29.54
566.953	43.54
567.076	43.54
567.198	40.54
567.321	9.54
567.444	31.54
567.566	52.54
567.689	27.54
567.812	19.54
567.934	53.54
568.057	35.54
568.18	27.54
568.302	37.54
568.425	29.54
568.548	31.54
568.67	36.54
568.793	38.54
568.916	30.54
569.038	23.54
569.161	32.54
569.283	45.54
569.406	32.54
569.529	21.54
569.651	28.54
569.774	22.54
569.897	27.54
570.019	38.54
570.142	39.54
570.265	36.54
570.387	35.54
570.51	48.54
570.632	29.54
570.755	31.54
570.878	34.54
571	25.54
571.123	19.54
571.246	32.54
571.368	27.54
571.491	38.54
571.613	31.54
571.736	17.54
571.859	21.54
571.981	6.54
572.104	18.54
572.226	43.54
572.349	24.54
572.472	33.54
572.594	38.54
572.717	43.54
572.839	44.54
572.962	40.54
573.085	40.54
573.207	27.54
573.33	32.54
573.452	38.54
573.575	39.54
573.697	32.54
573.82	32.54
573.943	14.54
574.065	42.54
574.188	43.54
574.31	41.54
574.433	27.54
574.555	40.54
574.678	27.54
574.801	34.54
574.923	22.54
575.046	35.54
575.168	21.54
575.291	37.54
575.413	38.54
575.536	27.54
575.659	72.54
575.781	34.54
575.904	54.54
576.026	76.54
576.149	70.54
576.271	127.54
576.394	215.54
576.516	523.54
576.639	3583.54
576.761	10056.54
576.884	8573.54
577.007	8572.54
577.129	7806.54
577.252	3638.54
577.374	1277.54
577.497	517.54
577.619	278.54
577.742	184.54
577.864	166.54
577.987	142.54
578.109	132.54
578.232	136.54
578.354	152.54
578.477	190.54
578.599	378.54
578.722	1947.54
578.844	8853.54
578.967	9664.54
579.089	8598.54
579.212	8924.54
579.334	5157.54
579.457	1888.54
579.579	692.54
579.702	329.54
579.824	194.54
579.947	146.54
580.069	105.54
580.192	82.54
580.314	86.54
580.437	57.54
580.559	100.54
580.682	69.54
580.804	62.54
580.927	63.54
581.049	73.54
581.172	49.54
581.294	66.54
581.417	48.54
581.539	42.54
581.662	53.54
581.784	40.54
581.907	58.54
582.029	48.54
582.152	27.54
582.274	60.54
582.396	37.54
582.519	41.54
582.641	32.54
582.764	22.54
582.886	62.54
583.009	25.54
583.131	26.54
583.254	33.54
583.376	52.54
583.499	44.54
583.621	42.54
583.743	49.54
583.866	45.54
583.988	43.54
584.111	34.54
584.233	40.54
584.356	31.54
584.478	50.54
584.601	12.54
584.723	20.54
584.845	47.54
584.968	26.54
585.09	49.54
585.213	56.54
585.335	19.54
585.458	15.54
585.58	30.54
585.702	41.54
585.825	28.54
585.947	36.54
586.07	24.54
586.192	6.54
586.315	28.54
586.437	24.54
586.559	18.54
586.682	18.54
586.804	42.54
586.927	44.54
587.049	27.54
587.171	40.54
587.294	41.54
587.416	42.54
587.539	21.54
587.661	22.54
587.783	33.54
587.906	11.54
588.028	40.54
588.151	32.54
588.273	39.54
588.395	20.54
588.518	14.54
588.64	42.54
588.763	32.54
588.885	48.54
589.007	42.54
589.13	13.54
589.252	24.54
589.375	23.54
589.497	26.54
589.619	29.54
589.742	36.54
589.864	33.54
589.986	44.54
590.109	11.54
590.231	18.54
590.354	36.54
590.476	20.54
590.598	26.54
590.721	14.54
590.843	31.54
590.965	28.54
591.088	39.54
591.21	26.54
591.332	27.54
591.455	10.54
591.577	14.54
591.7	36.54
591.822	18.54
591.944	14.54
592.067	28.54
592.189	45.54
592.311	42.54
592.434	30.54
592.556	23.54
592.678	30.54
592.801	22.54
592.923	29.54
593.045	25.54
593.168	27.54
593.29	27.54
593.412	32.54
593.535	36.54
593.657	12.54
593.779	4.54
593.902	20.54
594.024	28.54
594.146	38.54
594.269	3.54
594.391	8.54
594.513	37.54
594.636	40.54
594.758	11.54
594.88	34.54
595.003	19.54
595.125	29.54
595.247	30.54
595.37	42.54
595.492	11.54
595.614	47.54
595.737	24.54
595.859	16.54
595.981	16.54
596.104	21.54
596.226	8.54
596.348	13.54
596.471	16.54
596.593	23.54
596.715	25.54
596.838	37.54
596.96	15.54
597.082	33.54
597.204	20.54
597.327	19.54
597.449	21.54
597.571	16.54
597.694	16.54
597.816	24.54
597.938	20.54
598.061	6.54
598.183	21.54
598.305	29.54
598.427	25.54
598.55	24.54
598.672	32.54
598.794	15.54
598.917	22.54
599.039	18.54
599.161	27.54
599.283	32.54
599.406	20.54
599.528	29.54
599.65	51.54
599.773	30.54
599.895	44.54
600.017	49.54
600.139	43.54
600.262	10.54
600.384	25.54
600.506	31.54
600.628	47.54
600.751	36.54
600.873	27.54
600.995	20.54
601.118	38.54
601.24	19.54
601.362	27.54
601.484	36.54
601.607	32.54
601.729	15.54
601.851	8.54
601.973	25.54
602.096	34.54
602.218	32.54
602.34	16.54
602.462	27.54
602.585	27.54
602.707	16.54
602.829	6.54
602.951	20.54
603.074	7.54
603.196	20.54
603.318	24.54
603.44	20.54
603.563	16.54
603.685	-5.46
603.807	19.54
603.929	24.54
604.052	50.54
604.174	42.54
604.296	25.54
604.418	24.54
604.541	29.54
604.663	12.54
604.785	14.54
604.907	11.54
605.03	13.54
605.152	47.54
605.274	24.54
605.396	7.54
605.519	30.54
605.641	22.54
605.763	18.54
605.885	30.54
606.008	18.54
606.13	23.54
606.252	35.54
606.374	6.54
606.496	2.54
606.619	5.54
606.741	7.54
606.863	28.54
606.985	39.54
607.108	23.54
607.23	21.54
607.352	24.54
607.474	21.54
607.596	24.54
607.719	23.54
607.841	26.54
607.963	24.54
608.085	27.54
608.207	37.54
608.33	25.54
608.452	16.54
608.574	17.54
608.696	34.54
608.819	22.54
608.941	20.54
609.063	29.54
609.185	16.54
609.307	29.54
609.43	40.54
609.552	30.54
609.674	7.54
609.796	30.54
609.918	37.54
610.041	24.54
610.163	33.54
610.285	8.54
610.407	26.54
610.529	18.54
610.652	28.54
610.774	28.54
610.896	18.54
611.018	19.54
611.14	18.54
611.263	22.54
611.385	19.54
611.507	22.54
611.629	16.54
611.751	38.54
611.873	50.54
611.996	35.54
612.118	41.54
612.24	6.54
612.362	29.54
612.484	41.54
612.607	34.54
612.729	41.54
612.851	55.54
612.973	24.54
613.095	13.54
613.218	-2.46
613.34	14.54
613.462	6.54
613.584	18.54
613.706	21.54
613.828	23.54
613.951	16.54
614.073	10.54
614.195	4.54
614.317	22.54
614.439	28.54
614.561	19.54
614.684	33.54
614.806	44.54
614.928	23.54
615.05	28.54
615.172	29.54
615.294	18.54
615.417	21.54
615.539	17.54
615.661	24.54
615.783	32.54
615.905	17.54
616.027	21.54
616.15	16.54
616.272	18.54
616.394	27.54
616.516	26.54
616.638	20.54
616.76	19.54
616.883	26.54
617.005	7.54
617.127	29.54
617.249	24.54
617.371	28.54
617.493	20.54
617.615	34.54
617.738	16.54
617.86	24.54
617.982	33.54
618.104	22.54
618.226	11.54
618.348	9.54
618.471	22.54
618.593	22.54
618.715	22.54
618.837	25.54
618.959	14.54
619.081	28.54
619.203	28.54
619.326	34.54
619.448	23.54
619.57	32.54
619.692	26.54
619.814	33.54
619.936	12.54
620.058	21.54
620.181	28.54
620.303	49.54
620.425	10.54
620.547	13.54
620.669	16.54
620.791	10.54
620.913	14.54
621.036	9.54
621.158	12.54
621.28	21.54
621.402	30.54
621.524	6.54
621.646	25.54
621.768	9.54
621.891	2.54
622.013	6.54
622.135	19.54
622.257	13.54
622.379	16.54
622.501	5.54
622.623	10.54
622.745	20.54
622.868	25.54
622.99	24.54
623.112	4.54
623.234	22.54
623.356	0.54
623.478	-1.46
623.6	34.54
623.722	9.54
623.845	9.54
623.967	30.54
624.089	30.54
624.211	20.54
624.333	43.54
624.455	23.54
624.577	16.54
624.699	34.54
624.822	13.54
624.944	22.54
625.066	4.54
625.188	4.54
625.31	9.54
625.432	43.54
625.554	13.54
625.676	50.54
625.799	33.54
625.921	24.54
626.043	10.54
626.165	17.54
626.287	-9.46
626.409	16.54
626.531	19.54
626.653	23.54
626.775	24.54
626.898	18.54
627.02	26.54
627.142	45.54
627.264	23.54
627.386	28.54
627.508	18.54
627.63	23.54
627.752	30.54
627.874	20.54
627.997	38.54
628.119	26.54
628.241	16.54
628.363	26.54
628.485	23.54
628.607	21.54
628.729	9.54
628.851	22.54
628.973	22.54
629.096	12.54
629.218	17.54
629.34	19.54
629.462	20.54
629.584	12.54
629.706	20.54
629.828	29.54
629.95	10.54
630.072	17.54
630.195	14.54
630.317	20.54
630.439	17.54
630.561	16.54
630.683	8.54
630.805	33.54
630.927	20.54
631.049	23.54
631.171	7.54
631.293	15.54
631.416	21.54
631.538	35.54
631.66	18.54
631.782	19.54
631.904	30.54
632.026	16.54
632.148	28.54
632.27	12.54
632.392	20.54
632.514	1.54
632.637	16.54
632.759	12.54
632.881	10.54
633.003	12.54
633.125	8.54
633.247	12.54
633.369	12.54
633.491	8.54
633.613	22.54
633.735	22.54
633.858	15.54
633.98	5.54
634.102	-3.46
634.224	8.54
634.346	14.54
634.468	23.54
634.59	11.54
634.712	23.54
634.834	7.54
634.956	1.54
635.078	7.54
635.201	2.54
635.323	6.54
635.445	10.54
635.567	-0.46
635.689	28.54
635.811	15.54
635.933	18.54
636.055	14.54
636.177	14.54
636.299	26.54
636.421	1.54
636.544	0.54
636.666	10.54
636.788	8.54
636.91	29.54
637.032	23.54
637.154	19.54
637.276	54.54
637.398	25.54
637.52	25.54
637.642	14.54
637.764	30.54
637.887	16.54
638.009	1.54
638.131	16.54
638.253	10.54
638.375	16.54
638.497	21.54
638.619	-2.46
638.741	9.54
638.863	11.54
638.985	-4.46
639.107	23.54
639.23	14.54
639.352	27.54
639.474	9.54
639.596	13.54
639.718	-1.46
639.84	20.54
639.962	16.54
640.084	15.54
640.206	22.54
640.328	-2.46
640.45	8.54
640.573	17.54
640.695	20.54
640.817	23.54
640.939	22.54
641.061	29.54
641.183	9.54
641.305	5.54
641.427	0.54
641.549	6.54
641.671	5.54
641.793	8.54
641.915	17.54
642.038	4.54
642.16	-4.46
642.282	9.54
642.404	9.54
642.526	11.54
642.648	12.54
642.77	0.54
642.892	4.54
643.014	18.54
643.136	6.54
643.258	0.54
643.381	38.54
643.503	21.54
643.625	7.54
643.747	7.54
643.869	6.54
643.991	22.54
644.113	10.54
644.235	5.54
644.357	20.54
644.479	17.54
644.601	11.54
644.723	10.54
644.846	29.54
644.968	3.54
645.09	4.54
645.212	13.54
645.334	14.54
645.456	25.54
645.578	22.54
645.7	42.54
645.822	31.54
645.944	27.54
646.066	11.54
646.188	14.54
646.311	31.54
646.433	5.54
646.555	34.54
646.677	34.54
646.799	24.54
646.921	8.54
647.043	31.54
647.165	0.54
647.287	14.54
647.409	16.54
647.531	29.54
647.654	2.54
647.776	12.54
647.898	9.54
648.02	10.54
648.142	-0.46
648.264	0.54
648.386	13.54
648.508	0.54
648.63	16.54
648.752	-1.46
648.874	12.54
648.997	-0.46
649.119	16.54
649.241	5.54
649.363	24.54
649.485	22.54
649.607	1.54
649.729	-14.46
649.851	8.54
649.973	13.54
650.095	25.54
650.217	-8.46
650.34	3.54
650.462	4.54
650.584	16.54
650.706	29.54
650.828	12.54
650.95	-6.46
651.072	10.54
651.194	8.54
651.316	22.54
651.438	21.54
651.56	-14.46
651.683	14.54
651.805	10.54
651.927	25.54
652.049	8.54
652.171	24.54
652.293	25.54
652.415	-7.46
652.537	-16.46
652.659	-4.46
652.781	22.54
652.903	14.54
653.026	30.54
653.148	13.54
653.27	23.54
653.392	14.54
653.514	1.54
653.636	6.54
653.758	11.54
653.88	8.54
654.002	0.54
654.124	-2.46
654.247	8.54
654.369	22.54
654.491	32.54
654.613	8.54
654.735	-2.46
654.857	18.54
654.979	-10.46
655.101	16.54
655.223	36.54
655.345	18.54
655.468	20.54
655.59	18.54
655.712	-3.46
655.834	9.54
655.956	15.54
656.078	-2.46
656.2	22.54
656.322	9.54
656.444	-9.46
656.566	24.54
656.689	15.54
656.811	-6.46
656.933	10.54
657.055	6.54
657.177	10.54
657.299	14.54
657.421	31.54
657.543	26.54
657.665	10.54
657.787	20.54
657.91	2.54
658.032	-5.46
658.154	-2.46
658.276	19.54
658.398	0.54
658.52	22.54
658.642	5.54
658.764	18.54
658.886	1.54
659.009	13.54
659.131	25.54
659.253	20.54
659.375	18.54
659.497	-5.46
659.619	23.54
659.741	12.54
659.863	-3.46
659.985	-5.46
660.108	27.54
660.23	-1.46
660.352	14.54
660.474	20.54
660.596	7.54
660.718	16.54
660.84	13.54
660.962	6.54
661.084	-6.46
661.207	20.54
661.329	20.54
661.451	13.54
661.573	7.54
661.695	30.54
661.817	12.54
661.939	31.54
662.061	25.54
662.184	2.54
662.306	12.54
662.428	2.54
662.55	21.54
662.672	14.54
662.794	0.54
662.916	14.54
663.038	17.54
663.161	29.54
663.283	24.54
663.405	29.54
663.527	6.54
663.649	22.54
663.771	8.54
663.893	14.54
664.015	9.54
664.138	22.54
664.26	9.54
664.382	-5.46
664.504	-9.46
664.626	-3.46
664.748	-5.46
664.87	14.54
664.992	29.54
665.115	30.54
665.237	-6.46
665.359	5.54
665.481	16.54
665.603	17.54
665.725	8.54
665.847	1.54
665.97	18.54
666.092	19.54
666.214	1.54
666.336	6.54
666.458	5.54
666.58	17.54
666.702	11.54
666.825	-0.46
666.947	1.54
667.069	17.54
667.191	8.54
667.313	-6.46
667.435	9.54
667.557	-1.46
667.68	1.54
667.802	8.54
667.924	0.54
668.046	2.54
668.168	8.54
668.29	32.54
668.412	4.54
668.535	1.54
668.657	12.54
668.779	-8.46
668.901	13.54
669.023	24.54
669.145	14.54
669.267	24.54
669.39	25.54
669.512	20.54
669.634	21.54
669.756	5.54
669.878	10.54
670	6.54
670.123	17.54
670.245	35.54
670.367	25.54
670.489	7.54
670.611	6.54
670.733	8.54
670.856	-2.46
670.978	19.54
671.1	22.54
671.222	5.54
671.344	6.54
671.466	4.54
671.589	-9.46
671.711	-0.46
671.833	-5.46
671.955	4.54
672.077	-1.46
672.199	27.54
672.322	32.54
672.444	5.54
672.566	17.54
672.688	13.54
672.81	13.54
672.932	20.54
673.055	-3.46
673.177	-14.46
673.299	8.54
673.421	-5.46
673.543	10.54
673.665	29.54
673.788	35.54
673.91	-0.46
674.032	-5.46
674.154	-3.46
674.276	6.54
674.399	1.54
674.521	8.54
674.643	8.54
674.765	-7.46
674.887	0.54
675.009	-2.46
675.132	-5.46
675.254	-4.46
675.376	12.54
675.498	13.54
675.62	36.54
675.743	32.54
675.865	38.54
675.987	-2.46
676.109	19.54
676.231	8.54
676.354	21.54
676.476	13.54
676.598	16.54
676.72	5.54
676.842	14.54
676.965	8.54
677.087	2.54
677.209	14.54
677.331	21.54
677.453	2.54
677.576	18.54
677.698	6.54
677.82	-5.46
677.942	2.54
678.064	8.54
678.187	12.54
678.309	22.54
678.431	12.54
678.553	11.54
678.675	35.54
678.798	26.54
678.92	11.54
679.042	10.54
679.164	-2.46
679.286	16.54
679.409	4.54
679.531	-1.46
679.653	-0.46
679.775	12.54
679.898	21.54
680.02	5.54
680.142	15.54
680.264	6.54
680.386	-23.46
680.509	6.54
680.631	26.54
680.753	12.54
680.875	13.54
680.998	12.54
681.12	22.54
681.242	3.54
681.364	-1.46
681.486	8.54
681.609	-5.46
681.731	-4.46
681.853	-3.46
681.975	-10.46
682.098	0.54
682.22	25.54
682.342	20.54
682.464	12.54
682.587	12.54
682.709	15.54
682.831	-0.46
682.953	5.54
683.076	4.54
683.198	16.54
683.32	12.54
683.442	5.54
683.565	22.54
683.687	-1.46
683.809	-7.46
683.931	-3.46
684.054	14.54
684.176	11.54
684.298	17.54
684.42	1.54
684.543	7.54
684.665	4.54
684.787	4.54
684.909	-7.46
685.032	23.54
685.154	2.54
685.276	14.54
685.398	-1.46
685.521	2.54
685.643	19.54
685.765	25.54
685.887	19.54
686.01	19.54
686.132	5.54
686.254	21.54
686.377	21.54
686.499	16.54
686.621	15.54
686.743	5.54
686.866	24.54
686.988	11.54
687.11	22.54
687.232	10.54
687.355	1.54
687.477	2.54
687.599	29.54
687.722	12.54
687.844	10.54
687.966	20.54
688.088	9.54
688.211	16.54
688.333	10.54
688.455	6.54
688.578	18.54
688.7	13.54
688.822	21.54
688.944	-1.46
689.067	39.54
689.189	6.54
689.311	7.54
689.434	0.54
689.556	8.54
689.678	16.54
689.801	5.54
689.923	34.54
690.045	24.54
690.167	20.54
690.29	13.54
690.412	17.54
690.534	15.54
690.657	13.54
690.779	2.54
690.901	20.54
691.024	18.54
691.146	0.54
691.268	4.54
691.391	17.54
691.513	17.54
691.635	9.54
691.758	22.54
691.88	16.54
692.002	-8.46
692.125	25.54
692.247	13.54
692.369	-7.46
692.492	9.54
692.614	18.54
692.736	-1.46
692.859	6.54
692.981	1.54
693.103	13.54
693.226	13.54
693.348	26.54
693.47	14.54
693.593	26.54
693.715	32.54
693.837	17.54
693.96	18.54
694.082	11.54
694.204	14.54
694.327	5.54
694.449	-8.46
694.571	16.54
694.694	5.54
694.816	18.54
694.938	18.54
695.061	0.54
695.183	1.54
695.305	18.54
695.428	25.54
695.55	2.54
695.672	-10.46
695.795	14.54
695.917	1.54
696.04	12.54
696.162	-3.46
696.284	15.54
696.407	16.54
696.529	25.54
696.651	24.54
696.774	16.54
696.896	13.54
697.019	11.54
697.141	20.54
697.263	14.54
697.386	17.54
697.508	5.54
697.63	6.54
697.753	32.54
697.875	29.54
697.998	11.54
698.12	21.54
698.242	14.54
698.365	0.54
698.487	-6.46
698.61	20.54
698.732	20.54
698.854	11.54
698.977	-15.46
699.099	18.54
699.221	12.54
699.344	10.54
699.466	22.54
699.589	-0.46
699.711	14.54
699.834	18.54
699.956	3.54
700.078	12.54
700.201	2.54
700.323	24.54
700.446	24.54
700.568	-2.46
700.69	13.54
700.813	7.54
700.935	-7.46
701.058	14.54
701.18	2.54
701.302	-2.46
701.425	5.54
701.547	18.54
701.67	2.54
701.792	11.54
701.915	4.54
702.037	-2.46
702.159	-7.46
702.282	25.54
702.404	12.54
702.527	15.54
702.649	28.54
702.772	6.54
702.894	8.54
703.017	12.54
703.139	9.54
703.261	21.54
703.384	14.54
703.506	-6.46
703.629	-2.46
703.751	8.54
703.874	14.54
703.996	-5.46
704.119	-7.46
704.241	8.54
704.364	3.54
704.486	8.54
704.608	8.54
704.731	-1.46
704.853	17.54
704.976	7.54
705.098	14.54
705.221	11.54
705.343	2.54
705.466	20.54
705.588	19.54
705.711	12.54
705.833	27.54
705.956	6.54
706.078	13.54
706.201	8.54
706.323	7.54
706.446	7.54
