Data from LowRes_mercury_15_20_11_07_2024_HR4C61881__46__15-23-36-871.txt Node

Date: Thu Nov 07 15:23:36 EST 2024
User: crc00042
Spectrometer: HR4C6188
Trigger mode: 4
Integration Time (sec): 1.000000E-1
Scans to average: 1
Electric dark correction enabled: true
Nonlinearity correction enabled: false
Boxcar width: 0
XAxis mode: Wavelengths
Number of Pixels in Spectrum: 3648
>>>>>Begin Spectral Data<<<<<
245.66	-49.46
245.797	-49.46
245.934	-49.46
246.071	-74.46
246.208	17.54
246.344	14.54
246.481	-21.46
246.618	-18.46
246.755	-5.46
246.892	8.54
247.029	-24.46
247.165	-3.46
247.302	12.54
247.439	16.54
247.576	12.54
247.713	-1.46
247.849	24.54
247.986	-14.46
248.123	-10.46
248.26	-3.46
248.396	10.54
248.533	12.54
248.67	-4.46
248.806	-7.46
248.943	-5.46
249.08	-3.46
249.216	6.54
249.353	-19.46
249.49	2.54
249.626	5.54
249.763	-6.46
249.9	-19.46
250.036	-20.46
250.173	-14.46
250.309	0.54
250.446	-8.46
250.582	-7.46
250.719	-21.46
250.856	9.54
250.992	-16.46
251.129	-13.46
251.265	-7.46
251.402	6.54
251.538	-1.46
251.675	-12.46
251.811	12.54
251.948	17.54
252.084	-3.46
252.221	-18.46
252.357	-2.46
252.493	18.54
252.63	0.54
252.766	13.54
252.903	-8.46
253.039	-9.46
253.175	3.54
253.312	16.54
253.448	-4.46
253.585	-9.46
253.721	4.54
253.857	-7.46
253.994	5.54
254.13	-2.46
254.266	-6.46
254.403	-13.46
254.539	-12.46
254.675	13.54
254.811	3.54
254.948	17.54
255.084	-8.46
255.22	-18.46
255.356	-4.46
255.493	13.54
255.629	11.54
255.765	-7.46
255.901	27.54
256.037	6.54
256.174	-5.46
256.31	-14.46
256.446	-1.46
256.582	-6.46
256.718	4.54
256.854	11.54
256.991	10.54
257.127	25.54
257.263	15.54
257.399	10.54
257.535	-24.46
257.671	-7.46
257.807	-13.46
257.943	-15.46
258.079	-25.46
258.215	-18.46
258.351	6.54
258.487	2.54
258.623	35.54
258.759	-5.46
258.895	7.54
259.031	-6.46
259.167	-16.46
259.303	17.54
259.439	-5.46
259.575	2.54
259.711	2.54
259.847	10.54
259.983	7.54
260.119	5.54
260.255	-22.46
260.391	-1.46
260.527	11.54
260.663	-1.46
260.799	4.54
260.934	1.54
261.07	-5.46
261.206	-3.46
261.342	-2.46
261.478	2.54
261.614	5.54
261.749	17.54
261.885	-0.46
262.021	3.54
262.157	12.54
262.293	-13.46
262.428	10.54
262.564	1.54
262.7	-12.46
262.836	-12.46
262.971	11.54
263.107	-3.46
263.243	11.54
263.378	0.54
263.514	-28.46
263.65	-1.46
263.785	-5.46
263.921	-5.46
264.057	14.54
264.192	12.54
264.328	28.54
264.464	-20.46
264.599	4.54
264.735	10.54
264.871	-15.46
265.006	-1.46
265.142	-0.46
265.277	-11.46
265.413	9.54
265.548	14.54
265.684	12.54
265.819	6.54
265.955	-25.46
266.091	-4.46
266.226	-13.46
266.362	-4.46
266.497	6.54
266.633	-1.46
266.768	-9.46
266.903	12.54
267.039	13.54
267.174	27.54
267.31	-1.46
267.445	8.54
267.581	-7.46
267.716	-8.46
267.851	-5.46
267.987	-2.46
268.122	10.54
268.258	-1.46
268.393	0.54
268.528	14.54
268.664	-4.46
268.799	-18.46
268.934	2.54
269.07	-15.46
269.205	10.54
269.34	23.54
269.476	3.54
269.611	-13.46
269.746	18.54
269.881	20.54
270.017	20.54
270.152	0.54
270.287	-3.46
270.422	9.54
270.558	1.54
270.693	21.54
270.828	0.54
270.963	2.54
271.098	-16.46
271.234	-6.46
271.369	27.54
271.504	0.54
271.639	0.54
271.774	13.54
271.909	-2.46
272.045	-31.46
272.18	7.54
272.315	-1.46
272.45	-1.46
272.585	0.54
272.72	9.54
272.855	9.54
272.99	16.54
273.125	2.54
273.26	-3.46
273.395	-10.46
273.53	0.54
273.665	-12.46
273.8	-22.46
273.935	-11.46
274.07	11.54
274.205	7.54
274.34	-12.46
274.475	-15.46
274.61	20.54
274.745	-10.46
274.88	21.54
275.015	-10.46
275.15	2.54
275.285	13.54
275.42	0.54
275.555	7.54
275.69	-3.46
275.825	-3.46
275.959	13.54
276.094	-0.46
276.229	-2.46
276.364	-8.46
276.499	-1.46
276.634	-5.46
276.768	-8.46
276.903	6.54
277.038	31.54
277.173	7.54
277.308	-6.46
277.442	-9.46
277.577	-12.46
277.712	-11.46
277.847	8.54
277.981	5.54
278.116	-14.46
278.251	1.54
278.386	3.54
278.52	1.54
278.655	-2.46
278.79	10.54
278.924	-2.46
279.059	3.54
279.194	-9.46
279.328	35.54
279.463	4.54
279.598	14.54
279.732	-1.46
279.867	1.54
280.001	-0.46
280.136	-10.46
280.271	24.54
280.405	12.54
280.54	18.54
280.674	-10.46
280.809	19.54
280.943	8.54
281.078	-7.46
281.213	27.54
281.347	14.54
281.482	12.54
281.616	4.54
281.751	-8.46
281.885	-32.46
282.02	-11.46
282.154	-1.46
282.288	-0.46
282.423	-3.46
282.557	-10.46
282.692	8.54
282.826	-1.46
282.961	7.54
283.095	3.54
283.229	-17.46
283.364	-6.46
283.498	-8.46
283.633	18.54
283.767	-10.46
283.901	1.54
284.036	5.54
284.17	-0.46
284.304	-5.46
284.439	-1.46
284.573	-2.46
284.707	5.54
284.842	-8.46
284.976	-6.46
285.11	1.54
285.244	11.54
285.379	38.54
285.513	0.54
285.647	10.54
285.781	-13.46
285.916	-5.46
286.05	3.54
286.184	29.54
286.318	-7.46
286.453	-17.46
286.587	-8.46
286.721	-1.46
286.855	-0.46
286.989	8.54
287.123	-4.46
287.258	-11.46
287.392	-12.46
287.526	-9.46
287.66	3.54
287.794	-5.46
287.928	-3.46
288.062	1.54
288.196	-4.46
288.33	19.54
288.464	33.54
288.598	21.54
288.733	13.54
288.867	-5.46
289.001	4.54
289.135	3.54
289.269	4.54
289.403	5.54
289.537	11.54
289.671	14.54
289.805	-0.46
289.939	15.54
290.073	14.54
290.207	16.54
290.34	7.54
290.474	5.54
290.608	31.54
290.742	6.54
290.876	-5.46
291.01	9.54
291.144	16.54
291.278	32.54
291.412	11.54
291.546	8.54
291.679	5.54
291.813	6.54
291.947	-18.46
292.081	-3.46
292.215	-17.46
292.349	21.54
292.482	18.54
292.616	1.54
292.75	-5.46
292.884	-7.46
293.018	6.54
293.151	-22.46
293.285	3.54
293.419	-9.46
293.553	-10.46
293.686	-17.46
293.82	8.54
293.954	5.54
294.088	36.54
294.221	-3.46
294.355	6.54
294.489	14.54
294.622	7.54
294.756	-3.46
294.89	-9.46
295.023	7.54
295.157	19.54
295.291	4.54
295.424	15.54
295.558	19.54
295.691	4.54
295.825	-9.46
295.959	9.54
296.092	-8.46
296.226	-3.46
296.359	-4.46
296.493	-3.46
296.627	4.54
296.76	-2.46
296.894	2.54
297.027	-9.46
297.161	2.54
297.294	-12.46
297.428	6.54
297.561	24.54
297.695	-1.46
297.828	4.54
297.962	-9.46
298.095	-12.46
298.229	7.54
298.362	-1.46
298.495	3.54
298.629	4.54
298.762	12.54
298.896	15.54
299.029	-21.46
299.162	4.54
299.296	19.54
299.429	-0.46
299.563	18.54
299.696	0.54
299.829	3.54
299.963	12.54
300.096	6.54
300.229	19.54
300.363	8.54
300.496	10.54
300.629	-7.46
300.763	13.54
300.896	-2.46
301.029	17.54
301.162	20.54
301.296	-4.46
301.429	3.54
301.562	-5.46
301.695	15.54
301.829	1.54
301.962	18.54
302.095	16.54
302.228	0.54
302.362	5.54
302.495	-0.46
302.628	14.54
302.761	6.54
302.894	10.54
303.027	12.54
303.161	1.54
303.294	1.54
303.427	11.54
303.56	-3.46
303.693	13.54
303.826	14.54
303.959	-25.46
304.092	-6.46
304.225	-6.46
304.359	14.54
304.492	3.54
304.625	7.54
304.758	23.54
304.891	-20.46
305.024	14.54
305.157	-5.46
305.29	-17.46
305.423	0.54
305.556	6.54
305.689	19.54
305.822	6.54
305.955	-3.46
306.088	0.54
306.221	-0.46
306.354	-9.46
306.487	-9.46
306.62	-18.46
306.752	-20.46
306.885	-11.46
307.018	-5.46
307.151	6.54
307.284	-9.46
307.417	-8.46
307.55	-2.46
307.683	-7.46
307.816	6.54
307.948	15.54
308.081	10.54
308.214	8.54
308.347	7.54
308.48	-0.46
308.613	-9.46
308.745	11.54
308.878	-12.46
309.011	11.54
309.144	18.54
309.277	6.54
309.409	10.54
309.542	1.54
309.675	23.54
309.808	19.54
309.94	26.54
310.073	-19.46
310.206	-14.46
310.339	15.54
310.471	-10.46
310.604	31.54
310.737	2.54
310.869	6.54
311.002	7.54
311.135	2.54
311.267	-2.46
311.4	1.54
311.533	23.54
311.665	-2.46
311.798	18.54
311.93	19.54
312.063	29.54
312.196	30.54
312.328	59.54
312.461	36.54
312.593	19.54
312.726	69.54
312.859	111.54
312.991	156.54
313.124	58.54
313.256	28.54
313.389	6.54
313.521	4.54
313.654	5.54
313.786	-2.46
313.919	-2.46
314.051	6.54
314.184	16.54
314.316	23.54
314.449	3.54
314.581	16.54
314.714	-0.46
314.846	20.54
314.978	-22.46
315.111	-10.46
315.243	4.54
315.376	-5.46
315.508	8.54
315.641	2.54
315.773	15.54
315.905	8.54
316.038	-3.46
316.17	4.54
316.302	6.54
316.435	-0.46
316.567	-13.46
316.699	28.54
316.832	-4.46
316.964	-3.46
317.096	-8.46
317.229	0.54
317.361	-20.46
317.493	12.54
317.625	-11.46
317.758	-17.46
317.89	4.54
318.022	13.54
318.155	-0.46
318.287	0.54
318.419	-2.46
318.551	-3.46
318.683	10.54
318.816	17.54
318.948	-1.46
319.08	-9.46
319.212	9.54
319.344	-8.46
319.477	-5.46
319.609	6.54
319.741	-1.46
319.873	-23.46
320.005	14.54
320.137	10.54
320.269	7.54
320.401	8.54
320.534	-1.46
320.666	-7.46
320.798	-12.46
320.93	7.54
321.062	-22.46
321.194	3.54
321.326	-5.46
321.458	-2.46
321.59	-14.46
321.722	-5.46
321.854	-15.46
321.986	5.54
322.118	21.54
322.25	1.54
322.382	1.54
322.514	-1.46
322.646	-8.46
322.778	8.54
322.91	-12.46
323.042	0.54
323.174	-11.46
323.306	-17.46
323.438	-13.46
323.57	8.54
323.702	-5.46
323.834	4.54
323.966	-2.46
324.097	4.54
324.229	6.54
324.361	14.54
324.493	-1.46
324.625	-0.46
324.757	3.54
324.889	-1.46
325.021	6.54
325.152	21.54
325.284	20.54
325.416	-12.46
325.548	2.54
325.68	14.54
325.811	24.54
325.943	10.54
326.075	-26.46
326.207	-7.46
326.339	-3.46
326.47	1.54
326.602	8.54
326.734	14.54
326.866	18.54
326.997	-5.46
327.129	-1.46
327.261	-22.46
327.392	-11.46
327.524	-3.46
327.656	12.54
327.787	18.54
327.919	0.54
328.051	14.54
328.182	25.54
328.314	34.54
328.446	10.54
328.577	30.54
328.709	18.54
328.841	-1.46
328.972	-6.46
329.104	-4.46
329.235	19.54
329.367	8.54
329.499	11.54
329.63	26.54
329.762	1.54
329.893	21.54
330.025	-3.46
330.156	5.54
330.288	-8.46
330.419	8.54
330.551	21.54
330.683	13.54
330.814	6.54
330.946	23.54
331.077	10.54
331.208	-12.46
331.34	7.54
331.471	1.54
331.603	6.54
331.734	-5.46
331.866	5.54
331.997	2.54
332.129	14.54
332.26	13.54
332.392	26.54
332.523	4.54
332.654	-15.46
332.786	-3.46
332.917	5.54
333.048	33.54
333.18	21.54
333.311	12.54
333.443	8.54
333.574	14.54
333.705	30.54
333.837	54.54
333.968	115.54
334.099	219.54
334.231	209.54
334.362	59.54
334.493	32.54
334.624	20.54
334.756	12.54
334.887	18.54
335.018	6.54
335.15	19.54
335.281	4.54
335.412	29.54
335.543	11.54
335.675	6.54
335.806	18.54
335.937	11.54
336.068	16.54
336.199	45.54
336.331	-8.46
336.462	19.54
336.593	23.54
336.724	0.54
336.855	6.54
336.986	7.54
337.118	15.54
337.249	9.54
337.38	24.54
337.511	10.54
337.642	11.54
337.773	0.54
337.904	14.54
338.035	19.54
338.166	-2.46
338.298	-5.46
338.429	12.54
338.56	7.54
338.691	19.54
338.822	16.54
338.953	20.54
339.084	18.54
339.215	25.54
339.346	-12.46
339.477	-12.46
339.608	6.54
339.739	5.54
339.87	-2.46
340.001	7.54
340.132	15.54
340.263	8.54
340.394	20.54
340.525	20.54
340.656	-5.46
340.787	5.54
340.918	15.54
341.049	25.54
341.179	16.54
341.31	30.54
341.441	6.54
341.572	22.54
341.703	-1.46
341.834	0.54
341.965	39.54
342.096	16.54
342.227	11.54
342.357	-3.46
342.488	9.54
342.619	7.54
342.75	-2.46
342.881	-8.46
343.012	26.54
343.142	30.54
343.273	-0.46
343.404	12.54
343.535	26.54
343.666	37.54
343.796	23.54
343.927	29.54
344.058	31.54
344.189	21.54
344.319	24.54
344.45	17.54
344.581	16.54
344.712	11.54
344.842	25.54
344.973	31.54
345.104	25.54
345.234	5.54
345.365	13.54
345.496	26.54
345.626	25.54
345.757	26.54
345.888	19.54
346.018	20.54
346.149	30.54
346.28	34.54
346.41	29.54
346.541	26.54
346.672	20.54
346.802	36.54
346.933	22.54
347.063	22.54
347.194	26.54
347.325	31.54
347.455	32.54
347.586	26.54
347.716	14.54
347.847	32.54
347.977	28.54
348.108	38.54
348.238	32.54
348.369	33.54
348.499	56.54
348.63	44.54
348.76	46.54
348.891	63.54
349.021	57.54
349.152	74.54
349.282	52.54
349.413	47.54
349.543	51.54
349.674	13.54
349.804	43.54
349.935	28.54
350.065	34.54
350.196	27.54
350.326	22.54
350.456	10.54
350.587	28.54
350.717	18.54
350.848	21.54
350.978	37.54
351.108	-0.46
351.239	37.54
351.369	26.54
351.499	18.54
351.63	16.54
351.76	20.54
351.89	15.54
352.021	18.54
352.151	4.54
352.281	29.54
352.412	14.54
352.542	18.54
352.672	4.54
352.803	19.54
352.933	11.54
353.063	27.54
353.193	10.54
353.324	14.54
353.454	34.54
353.584	31.54
353.714	6.54
353.845	12.54
353.975	14.54
354.105	16.54
354.235	18.54
354.365	24.54
354.496	19.54
354.626	36.54
354.756	21.54
354.886	35.54
355.016	21.54
355.146	14.54
355.277	32.54
355.407	18.54
355.537	22.54
355.667	39.54
355.797	25.54
355.927	23.54
356.057	32.54
356.187	14.54
356.318	15.54
356.448	38.54
356.578	32.54
356.708	48.54
356.838	25.54
356.968	12.54
357.098	26.54
357.228	22.54
357.358	31.54
357.488	22.54
357.618	45.54
357.748	33.54
357.878	47.54
358.008	17.54
358.138	32.54
358.268	26.54
358.398	21.54
358.528	22.54
358.658	16.54
358.788	23.54
358.918	22.54
359.048	30.54
359.178	37.54
359.308	36.54
359.438	39.54
359.568	22.54
359.698	18.54
359.827	37.54
359.957	27.54
360.087	30.54
360.217	28.54
360.347	22.54
360.477	18.54
360.607	9.54
360.737	47.54
360.866	25.54
360.996	9.54
361.126	19.54
361.256	52.54
361.386	40.54
361.516	43.54
361.645	11.54
361.775	60.54
361.905	14.54
362.035	29.54
362.165	23.54
362.294	43.54
362.424	39.54
362.554	32.54
362.684	27.54
362.813	24.54
362.943	55.54
363.073	47.54
363.203	67.54
363.332	80.54
363.462	66.54
363.592	93.54
363.721	113.54
363.851	167.54
363.981	216.54
364.111	245.54
364.24	313.54
364.37	502.54
364.5	856.54
364.629	1775.54
364.759	3816.54
364.888	6142.54
365.018	9260.54
365.148	14755.54
365.277	12888.54
365.407	4695.54
365.537	3100.54
365.666	3971.54
365.796	1811.54
365.925	767.54
366.055	745.54
366.184	1004.54
366.314	1337.54
366.444	2463.54
366.573	2086.54
366.703	655.54
366.832	202.54
366.962	106.54
367.091	83.54
367.221	81.54
367.35	68.54
367.48	75.54
367.609	39.54
367.739	54.54
367.868	45.54
367.998	40.54
368.127	59.54
368.257	62.54
368.386	64.54
368.516	40.54
368.645	36.54
368.775	52.54
368.904	37.54
369.033	21.54
369.163	28.54
369.292	50.54
369.422	45.54
369.551	54.54
369.68	47.54
369.81	31.54
369.939	36.54
370.069	53.54
370.198	41.54
370.327	32.54
370.457	51.54
370.586	42.54
370.715	27.54
370.845	29.54
370.974	52.54
371.103	52.54
371.233	48.54
371.362	51.54
371.491	20.54
371.621	44.54
371.75	42.54
371.879	42.54
372.008	36.54
372.138	55.54
372.267	70.54
372.396	50.54
372.525	24.54
372.655	18.54
372.784	16.54
372.913	39.54
373.042	38.54
373.172	35.54
373.301	19.54
373.43	-1.46
373.559	9.54
373.688	28.54
373.818	37.54
373.947	37.54
374.076	4.54
374.205	20.54
374.334	11.54
374.463	8.54
374.593	32.54
374.722	45.54
374.851	34.54
374.98	7.54
375.109	12.54
375.238	28.54
375.367	46.54
375.496	-12.46
375.625	9.54
375.755	36.54
375.884	29.54
376.013	30.54
376.142	-7.46
376.271	9.54
376.4	24.54
376.529	27.54
376.658	37.54
376.787	28.54
376.916	30.54
377.045	20.54
377.174	28.54
377.303	37.54
377.432	42.54
377.561	43.54
377.69	23.54
377.819	33.54
377.948	11.54
378.077	8.54
378.206	5.54
378.335	8.54
378.464	20.54
378.593	24.54
378.722	18.54
378.851	8.54
378.98	24.54
379.108	8.54
379.237	-0.46
379.366	29.54
379.495	39.54
379.624	7.54
379.753	7.54
379.882	21.54
380.011	5.54
380.14	-1.46
380.268	12.54
380.397	8.54
380.526	35.54
380.655	-2.46
380.784	-20.46
380.913	14.54
381.041	22.54
381.17	9.54
381.299	15.54
381.428	23.54
381.557	21.54
381.685	3.54
381.814	13.54
381.943	10.54
382.072	1.54
382.2	3.54
382.329	20.54
382.458	25.54
382.587	33.54
382.715	47.54
382.844	18.54
382.973	18.54
383.102	11.54
383.23	16.54
383.359	-2.46
383.488	28.54
383.616	27.54
383.745	3.54
383.874	11.54
384.003	11.54
384.131	9.54
384.26	12.54
384.389	31.54
384.517	6.54
384.646	16.54
384.774	24.54
384.903	26.54
385.032	37.54
385.16	29.54
385.289	20.54
385.418	5.54
385.546	40.54
385.675	23.54
385.803	11.54
385.932	17.54
386.06	10.54
386.189	23.54
386.318	35.54
386.446	11.54
386.575	26.54
386.703	11.54
386.832	11.54
386.96	1.54
387.089	42.54
387.217	5.54
387.346	24.54
387.474	23.54
387.603	26.54
387.731	9.54
387.86	25.54
387.988	36.54
388.117	43.54
388.245	18.54
388.374	21.54
388.502	10.54
388.631	-17.46
388.759	10.54
388.888	19.54
389.016	-1.46
389.144	16.54
389.273	16.54
389.401	6.54
389.53	13.54
389.658	16.54
389.786	-2.46
389.915	16.54
390.043	8.54
390.172	16.54
390.3	36.54
390.428	20.54
390.557	17.54
390.685	37.54
390.813	47.54
390.942	54.54
391.07	28.54
391.198	33.54
391.327	39.54
391.455	12.54
391.583	37.54
391.712	14.54
391.84	36.54
391.968	22.54
392.096	13.54
392.225	14.54
392.353	38.54
392.481	19.54
392.609	27.54
392.738	24.54
392.866	16.54
392.994	14.54
393.122	42.54
393.251	12.54
393.379	15.54
393.507	10.54
393.635	23.54
393.764	18.54
393.892	27.54
394.02	13.54
394.148	34.54
394.276	31.54
394.404	49.54
394.533	34.54
394.661	19.54
394.789	24.54
394.917	59.54
395.045	31.54
395.173	11.54
395.302	15.54
395.43	20.54
395.558	32.54
395.686	22.54
395.814	29.54
395.942	28.54
396.07	35.54
396.198	32.54
396.326	44.54
396.454	39.54
396.582	23.54
396.711	24.54
396.839	45.54
396.967	36.54
397.095	22.54
397.223	36.54
397.351	66.54
397.479	62.54
397.607	29.54
397.735	43.54
397.863	55.54
397.991	46.54
398.119	24.54
398.247	45.54
398.375	34.54
398.503	59.54
398.631	61.54
398.759	52.54
398.887	53.54
399.015	36.54
399.143	48.54
399.271	60.54
399.399	62.54
399.526	83.54
399.654	56.54
399.782	56.54
399.91	93.54
400.038	80.54
400.166	80.54
400.294	72.54
400.422	64.54
400.55	86.54
400.678	100.54
400.805	112.54
400.933	104.54
401.061	121.54
401.189	132.54
401.317	143.54
401.445	108.54
401.573	90.54
401.7	45.54
401.828	56.54
401.956	51.54
402.084	36.54
402.212	34.54
402.34	33.54
402.467	30.54
402.595	36.54
402.723	45.54
402.851	49.54
402.978	55.54
403.106	76.54
403.234	101.54
403.362	123.54
403.489	124.54
403.617	137.54
403.745	188.54
403.873	282.54
404	555.54
404.128	1434.54
404.256	3850.54
404.384	4991.54
404.511	5357.54
404.639	7098.54
404.767	11234.54
404.894	14527.54
405.022	4856.54
405.15	1268.54
405.277	424.54
405.405	228.54
405.533	114.54
405.66	103.54
405.788	55.54
405.916	69.54
406.043	46.54
406.171	41.54
406.299	57.54
406.426	66.54
406.554	40.54
406.681	75.54
406.809	54.54
406.937	68.54
407.064	69.54
407.192	143.54
407.319	314.54
407.447	508.54
407.574	543.54
407.702	642.54
407.83	840.54
407.957	1570.54
408.085	922.54
408.212	263.54
408.34	92.54
408.467	51.54
408.595	33.54
408.722	56.54
408.85	53.54
408.977	32.54
409.105	18.54
409.232	32.54
409.36	25.54
409.487	19.54
409.615	29.54
409.742	32.54
409.87	27.54
409.997	46.54
410.125	32.54
410.252	38.54
410.379	23.54
410.507	32.54
410.634	32.54
410.762	25.54
410.889	49.54
411.017	43.54
411.144	28.54
411.271	5.54
411.399	29.54
411.526	15.54
411.653	33.54
411.781	29.54
411.908	35.54
412.036	11.54
412.163	42.54
412.29	24.54
412.418	13.54
412.545	25.54
412.672	24.54
412.8	38.54
412.927	32.54
413.054	40.54
413.182	42.54
413.309	35.54
413.436	17.54
413.564	18.54
413.691	17.54
413.818	41.54
413.945	24.54
414.073	19.54
414.2	30.54
414.327	32.54
414.454	44.54
414.582	29.54
414.709	7.54
414.836	38.54
414.963	17.54
415.091	33.54
415.218	27.54
415.345	38.54
415.472	18.54
415.6	22.54
415.727	32.54
415.854	28.54
415.981	8.54
416.108	28.54
416.236	26.54
416.363	31.54
416.49	27.54
416.617	11.54
416.744	30.54
416.871	37.54
416.998	3.54
417.126	22.54
417.253	11.54
417.38	20.54
417.507	19.54
417.634	27.54
417.761	40.54
417.888	52.54
418.015	28.54
418.143	42.54
418.27	40.54
418.397	15.54
418.524	20.54
418.651	23.54
418.778	36.54
418.905	38.54
419.032	45.54
419.159	54.54
419.286	49.54
419.413	54.54
419.54	51.54
419.667	30.54
419.794	23.54
419.921	29.54
420.048	50.54
420.175	47.54
420.302	38.54
420.429	35.54
420.556	47.54
420.683	36.54
420.81	68.54
420.937	59.54
421.064	60.54
421.191	57.54
421.318	71.54
421.445	77.54
421.572	44.54
421.699	62.54
421.826	40.54
421.953	38.54
422.08	22.54
422.207	11.54
422.334	13.54
422.461	20.54
422.588	22.54
422.714	43.54
422.841	35.54
422.968	38.54
423.095	10.54
423.222	-3.46
423.349	20.54
423.476	26.54
423.603	14.54
423.729	5.54
423.856	-7.46
423.983	26.54
424.11	9.54
424.237	3.54
424.364	20.54
424.491	24.54
424.617	1.54
424.744	9.54
424.871	4.54
424.998	2.54
425.125	5.54
425.251	26.54
425.378	2.54
425.505	24.54
425.632	16.54
425.758	8.54
425.885	19.54
426.012	30.54
426.139	35.54
426.266	35.54
426.392	12.54
426.519	38.54
426.646	10.54
426.772	25.54
426.899	12.54
427.026	24.54
427.153	10.54
427.279	22.54
427.406	22.54
427.533	25.54
427.659	30.54
427.786	1.54
427.913	33.54
428.039	17.54
428.166	25.54
428.293	33.54
428.419	23.54
428.546	21.54
428.673	18.54
428.799	29.54
428.926	14.54
429.053	44.54
429.179	39.54
429.306	39.54
429.433	37.54
429.559	25.54
429.686	-7.46
429.812	22.54
429.939	21.54
430.066	24.54
430.192	25.54
430.319	28.54
430.445	5.54
430.572	19.54
430.699	17.54
430.825	17.54
430.952	23.54
431.078	28.54
431.205	41.54
431.331	35.54
431.458	44.54
431.584	43.54
431.711	32.54
431.837	36.54
431.964	27.54
432.09	14.54
432.217	6.54
432.343	17.54
432.47	45.54
432.596	29.54
432.723	19.54
432.849	22.54
432.976	32.54
433.102	25.54
433.229	24.54
433.355	45.54
433.482	77.54
433.608	108.54
433.735	91.54
433.861	103.54
433.987	157.54
434.114	188.54
434.24	186.54
434.367	217.54
434.493	199.54
434.62	261.54
434.746	388.54
434.872	609.54
434.999	808.54
435.125	1720.54
435.252	5453.54
435.378	13363.54
435.504	15150.54
435.631	15358.54
435.757	15681.54
435.883	15681.54
436.01	15681.54
436.136	15681.54
436.262	15681.54
436.389	3387.54
436.515	1850.54
436.641	713.54
436.768	594.54
436.894	361.54
437.02	369.54
437.147	284.54
437.273	294.54
437.399	223.54
437.526	260.54
437.652	178.54
437.778	197.54
437.904	153.54
438.031	160.54
438.157	158.54
438.283	147.54
438.409	86.54
438.536	120.54
438.662	111.54
438.788	135.54
438.914	113.54
439.041	116.54
439.167	110.54
439.293	102.54
439.419	91.54
439.546	95.54
439.672	75.54
439.798	91.54
439.924	85.54
440.05	90.54
440.177	70.54
440.303	76.54
440.429	56.54
440.555	78.54
440.681	59.54
440.807	93.54
440.934	51.54
441.06	55.54
441.186	47.54
441.312	47.54
441.438	58.54
441.564	56.54
441.69	42.54
441.816	64.54
441.943	52.54
442.069	45.54
442.195	64.54
442.321	44.54
442.447	50.54
442.573	61.54
442.699	42.54
442.825	42.54
442.951	68.54
443.077	44.54
443.203	44.54
443.33	39.54
443.456	15.54
443.582	48.54
443.708	37.54
443.834	51.54
443.96	39.54
444.086	51.54
444.212	56.54
444.338	52.54
444.464	47.54
444.59	52.54
444.716	20.54
444.842	41.54
444.968	19.54
445.094	43.54
445.22	28.54
445.346	23.54
445.472	20.54
445.598	40.54
445.724	33.54
445.85	37.54
445.976	23.54
446.102	46.54
446.228	26.54
446.354	25.54
446.48	25.54
446.605	40.54
446.731	50.54
446.857	14.54
446.983	34.54
447.109	30.54
447.235	7.54
447.361	22.54
447.487	21.54
447.613	35.54
447.739	28.54
447.865	38.54
447.99	32.54
448.116	50.54
448.242	47.54
448.368	47.54
448.494	23.54
448.62	32.54
448.746	26.54
448.872	31.54
448.997	17.54
449.123	31.54
449.249	39.54
449.375	22.54
449.501	14.54
449.627	21.54
449.752	49.54
449.878	45.54
450.004	22.54
450.13	15.54
450.256	27.54
450.381	34.54
450.507	30.54
450.633	30.54
450.759	35.54
450.884	21.54
451.01	22.54
451.136	23.54
451.262	42.54
451.388	24.54
451.513	16.54
451.639	27.54
451.765	28.54
451.89	25.54
452.016	11.54
452.142	28.54
452.268	38.54
452.393	20.54
452.519	16.54
452.645	24.54
452.771	36.54
452.896	17.54
453.022	15.54
453.148	43.54
453.273	29.54
453.399	17.54
453.525	16.54
453.65	16.54
453.776	51.54
453.902	29.54
454.027	19.54
454.153	33.54
454.279	25.54
454.404	30.54
454.53	48.54
454.656	52.54
454.781	21.54
454.907	35.54
455.032	31.54
455.158	31.54
455.284	43.54
455.409	23.54
455.535	30.54
455.66	32.54
455.786	24.54
455.912	14.54
456.037	-16.46
456.163	16.54
456.288	52.54
456.414	-5.46
456.539	-4.46
456.665	43.54
456.791	16.54
456.916	26.54
457.042	37.54
457.167	7.54
457.293	21.54
457.418	12.54
457.544	21.54
457.669	34.54
457.795	30.54
457.92	32.54
458.046	26.54
458.171	19.54
458.297	24.54
458.422	8.54
458.548	13.54
458.673	33.54
458.799	24.54
458.924	11.54
459.05	28.54
459.175	19.54
459.301	23.54
459.426	34.54
459.552	23.54
459.677	22.54
459.803	46.54
459.928	31.54
460.053	6.54
460.179	30.54
460.304	34.54
460.43	19.54
460.555	10.54
460.681	44.54
460.806	33.54
460.931	29.54
461.057	25.54
461.182	19.54
461.308	20.54
461.433	32.54
461.558	20.54
461.684	38.54
461.809	38.54
461.934	19.54
462.06	23.54
462.185	10.54
462.311	20.54
462.436	28.54
462.561	23.54
462.687	3.54
462.812	21.54
462.937	4.54
463.063	21.54
463.188	8.54
463.313	29.54
463.439	26.54
463.564	31.54
463.689	31.54
463.814	26.54
463.94	22.54
464.065	39.54
464.19	33.54
464.316	16.54
464.441	12.54
464.566	36.54
464.692	31.54
464.817	32.54
464.942	2.54
465.067	21.54
465.193	4.54
465.318	26.54
465.443	28.54
465.568	26.54
465.694	25.54
465.819	39.54
465.944	28.54
466.069	29.54
466.194	43.54
466.32	25.54
466.445	29.54
466.57	21.54
466.695	37.54
466.82	54.54
466.946	45.54
467.071	43.54
467.196	30.54
467.321	21.54
467.446	33.54
467.572	26.54
467.697	36.54
467.822	35.54
467.947	47.54
468.072	22.54
468.197	11.54
468.323	24.54
468.448	30.54
468.573	10.54
468.698	21.54
468.823	35.54
468.948	42.54
469.073	15.54
469.198	22.54
469.324	35.54
469.449	42.54
469.574	41.54
469.699	38.54
469.824	37.54
469.949	23.54
470.074	45.54
470.199	62.54
470.324	24.54
470.449	30.54
470.574	20.54
470.7	25.54
470.825	48.54
470.95	40.54
471.075	22.54
471.2	44.54
471.325	53.54
471.45	37.54
471.575	20.54
471.7	41.54
471.825	19.54
471.95	20.54
472.075	13.54
472.2	28.54
472.325	6.54
472.45	11.54
472.575	23.54
472.7	24.54
472.825	35.54
472.95	13.54
473.075	39.54
473.2	26.54
473.325	28.54
473.45	32.54
473.575	32.54
473.7	30.54
473.825	35.54
473.95	39.54
474.075	27.54
474.2	12.54
474.325	4.54
474.45	30.54
474.574	19.54
474.699	32.54
474.824	33.54
474.949	26.54
475.074	11.54
475.199	34.54
475.324	29.54
475.449	32.54
475.574	25.54
475.699	9.54
475.824	17.54
475.949	20.54
476.073	3.54
476.198	7.54
476.323	15.54
476.448	15.54
476.573	30.54
476.698	17.54
476.823	23.54
476.947	25.54
477.072	18.54
477.197	48.54
477.322	32.54
477.447	9.54
477.572	26.54
477.697	15.54
477.821	29.54
477.946	37.54
478.071	35.54
478.196	32.54
478.321	21.54
478.445	18.54
478.57	13.54
478.695	2.54
478.82	24.54
478.945	12.54
479.069	12.54
479.194	26.54
479.319	15.54
479.444	40.54
479.569	11.54
479.693	24.54
479.818	30.54
479.943	22.54
480.068	18.54
480.192	26.54
480.317	12.54
480.442	16.54
480.567	18.54
480.691	23.54
480.816	6.54
480.941	11.54
481.066	14.54
481.19	35.54
481.315	25.54
481.44	15.54
481.564	-1.46
481.689	15.54
481.814	26.54
481.938	20.54
482.063	-2.46
482.188	0.54
482.313	35.54
482.437	1.54
482.562	27.54
482.687	25.54
482.811	30.54
482.936	23.54
483.061	25.54
483.185	10.54
483.31	25.54
483.435	11.54
483.559	25.54
483.684	20.54
483.808	37.54
483.933	44.54
484.058	17.54
484.182	22.54
484.307	27.54
484.432	15.54
484.556	13.54
484.681	14.54
484.805	23.54
484.93	11.54
485.055	27.54
485.179	52.54
485.304	26.54
485.428	34.54
485.553	14.54
485.678	33.54
485.802	6.54
485.927	22.54
486.051	6.54
486.176	36.54
486.3	1.54
486.425	4.54
486.549	27.54
486.674	25.54
486.799	18.54
486.923	17.54
487.048	10.54
487.172	10.54
487.297	17.54
487.421	40.54
487.546	23.54
487.67	26.54
487.795	17.54
487.919	36.54
488.044	20.54
488.168	47.54
488.293	16.54
488.417	15.54
488.542	28.54
488.666	37.54
488.791	25.54
488.915	26.54
489.04	20.54
489.164	23.54
489.289	32.54
489.413	4.54
489.538	35.54
489.662	38.54
489.786	-0.46
489.911	23.54
490.035	13.54
490.16	14.54
490.284	13.54
490.409	15.54
490.533	23.54
490.658	45.54
490.782	18.54
490.906	50.54
491.031	113.54
491.155	151.54
491.28	134.54
491.404	151.54
491.528	256.54
491.653	156.54
491.777	75.54
491.902	18.54
492.026	28.54
492.15	31.54
492.275	50.54
492.399	21.54
492.524	13.54
492.648	33.54
492.772	28.54
492.897	35.54
493.021	26.54
493.145	27.54
493.27	30.54
493.394	19.54
493.518	19.54
493.643	20.54
493.767	43.54
493.891	23.54
494.016	15.54
494.14	11.54
494.264	16.54
494.389	14.54
494.513	18.54
494.637	3.54
494.762	15.54
494.886	34.54
495.01	40.54
495.134	24.54
495.259	30.54
495.383	8.54
495.507	6.54
495.632	34.54
495.756	41.54
495.88	32.54
496.004	35.54
496.129	10.54
496.253	27.54
496.377	23.54
496.501	30.54
496.626	23.54
496.75	14.54
496.874	21.54
496.998	19.54
497.123	28.54
497.247	6.54
497.371	-8.46
497.495	10.54
497.62	11.54
497.744	5.54
497.868	20.54
497.992	39.54
498.116	5.54
498.241	20.54
498.365	15.54
498.489	22.54
498.613	34.54
498.737	24.54
498.862	10.54
498.986	20.54
499.11	35.54
499.234	26.54
499.358	11.54
499.482	17.54
499.607	42.54
499.731	29.54
499.855	46.54
499.979	20.54
500.103	26.54
500.227	23.54
500.351	9.54
500.476	23.54
500.6	14.54
500.724	37.54
500.848	34.54
500.972	40.54
501.096	31.54
501.22	35.54
501.344	8.54
501.469	26.54
501.593	31.54
501.717	30.54
501.841	20.54
501.965	24.54
502.089	26.54
502.213	31.54
502.337	23.54
502.461	24.54
502.585	25.54
502.709	18.54
502.834	0.54
502.958	42.54
503.082	20.54
503.206	23.54
503.33	26.54
503.454	19.54
503.578	33.54
503.702	23.54
503.826	28.54
503.95	39.54
504.074	14.54
504.198	32.54
504.322	3.54
504.446	19.54
504.57	23.54
504.694	23.54
504.818	4.54
504.942	46.54
505.066	16.54
505.19	6.54
505.314	22.54
505.438	18.54
505.562	1.54
505.686	27.54
505.81	6.54
505.934	24.54
506.058	17.54
506.182	21.54
506.306	24.54
506.43	27.54
506.554	21.54
506.678	12.54
506.802	9.54
506.926	16.54
507.05	16.54
507.174	23.54
507.298	29.54
507.422	35.54
507.546	26.54
507.67	48.54
507.794	8.54
507.918	28.54
508.042	31.54
508.165	17.54
508.289	-7.46
508.413	23.54
508.537	9.54
508.661	8.54
508.785	4.54
508.909	33.54
509.033	27.54
509.157	28.54
509.281	13.54
509.405	43.54
509.528	52.54
509.652	43.54
509.776	22.54
509.9	28.54
510.024	17.54
510.148	32.54
510.272	35.54
510.396	47.54
510.519	34.54
510.643	48.54
510.767	40.54
510.891	44.54
511.015	23.54
511.139	30.54
511.263	42.54
511.386	24.54
511.51	37.54
511.634	43.54
511.758	20.54
511.882	33.54
512.006	50.54
512.129	62.54
512.253	86.54
512.377	71.54
512.501	79.54
512.625	85.54
512.748	82.54
512.872	79.54
512.996	56.54
513.12	45.54
513.244	44.54
513.367	54.54
513.491	68.54
513.615	74.54
513.739	72.54
513.862	84.54
513.986	86.54
514.11	99.54
514.234	77.54
514.358	110.54
514.481	110.54
514.605	92.54
514.729	104.54
514.853	118.54
514.976	113.54
515.1	114.54
515.224	114.54
515.348	98.54
515.471	73.54
515.595	97.54
515.719	120.54
515.842	214.54
515.966	271.54
516.09	270.54
516.214	302.54
516.337	330.54
516.461	239.54
516.585	87.54
516.708	46.54
516.832	32.54
516.956	15.54
517.08	21.54
517.203	-9.46
517.327	11.54
517.451	22.54
517.574	35.54
517.698	13.54
517.822	19.54
517.945	24.54
518.069	19.54
518.193	54.54
518.316	24.54
518.44	35.54
518.564	13.54
518.687	-4.46
518.811	22.54
518.935	26.54
519.058	25.54
519.182	17.54
519.306	30.54
519.429	24.54
519.553	46.54
519.676	25.54
519.8	16.54
519.924	19.54
520.047	18.54
520.171	19.54
520.294	21.54
520.418	8.54
520.542	11.54
520.665	22.54
520.789	15.54
520.913	10.54
521.036	-0.46
521.16	11.54
521.283	12.54
521.407	2.54
521.53	10.54
521.654	-4.46
521.778	28.54
521.901	31.54
522.025	16.54
522.148	6.54
522.272	25.54
522.395	16.54
522.519	23.54
522.643	17.54
522.766	15.54
522.89	16.54
523.013	24.54
523.137	21.54
523.26	23.54
523.384	20.54
523.507	21.54
523.631	10.54
523.754	18.54
523.878	4.54
524.002	4.54
524.125	8.54
524.249	-2.46
524.372	20.54
524.496	25.54
524.619	35.54
524.743	28.54
524.866	2.54
524.99	0.54
525.113	8.54
525.237	38.54
525.36	24.54
525.484	23.54
525.607	10.54
525.731	2.54
525.854	36.54
525.978	34.54
526.101	9.54
526.224	27.54
526.348	4.54
526.471	17.54
526.595	28.54
526.718	-3.46
526.842	-2.46
526.965	17.54
527.089	20.54
527.212	23.54
527.336	14.54
527.459	31.54
527.582	9.54
527.706	18.54
527.829	30.54
527.953	19.54
528.076	-1.46
528.2	-6.46
528.323	30.54
528.446	8.54
528.57	7.54
528.693	26.54
528.817	16.54
528.94	24.54
529.064	36.54
529.187	11.54
529.31	18.54
529.434	18.54
529.557	14.54
529.68	23.54
529.804	7.54
529.927	7.54
530.051	18.54
530.174	16.54
530.297	18.54
530.421	41.54
530.544	21.54
530.668	10.54
530.791	30.54
530.914	27.54
531.038	15.54
531.161	10.54
531.284	19.54
531.408	17.54
531.531	29.54
531.654	13.54
531.778	12.54
531.901	5.54
532.024	33.54
532.148	24.54
532.271	16.54
532.394	22.54
532.518	39.54
532.641	5.54
532.764	37.54
532.888	24.54
533.011	12.54
533.134	7.54
533.258	26.54
533.381	15.54
533.504	10.54
533.628	21.54
533.751	15.54
533.874	19.54
533.997	16.54
534.121	12.54
534.244	21.54
534.367	13.54
534.491	9.54
534.614	16.54
534.737	28.54
534.86	21.54
534.984	2.54
535.107	7.54
535.23	29.54
535.354	31.54
535.477	19.54
535.6	22.54
535.723	19.54
535.847	15.54
535.97	-3.46
536.093	25.54
536.216	2.54
536.34	26.54
536.463	11.54
536.586	16.54
536.709	18.54
536.833	36.54
536.956	14.54
537.079	7.54
537.202	28.54
537.325	11.54
537.449	12.54
537.572	23.54
537.695	6.54
537.818	-5.46
537.941	-0.46
538.065	10.54
538.188	-3.46
538.311	28.54
538.434	23.54
538.558	15.54
538.681	36.54
538.804	22.54
538.927	18.54
539.05	23.54
539.173	15.54
539.297	17.54
539.42	12.54
539.543	34.54
539.666	39.54
539.789	43.54
539.913	38.54
540.036	12.54
540.159	17.54
540.282	27.54
540.405	16.54
540.528	3.54
540.651	20.54
540.775	19.54
540.898	23.54
541.021	16.54
541.144	18.54
541.267	13.54
541.39	4.54
541.513	27.54
541.637	29.54
541.76	36.54
541.883	12.54
542.006	32.54
542.129	46.54
542.252	25.54
542.375	47.54
542.498	46.54
542.622	39.54
542.745	27.54
542.868	59.54
542.991	57.54
543.114	56.54
543.237	35.54
543.36	73.54
543.483	72.54
543.606	46.54
543.73	89.54
543.853	78.54
543.976	82.54
544.099	105.54
544.222	107.54
544.345	131.54
544.468	178.54
544.591	242.54
544.714	267.54
544.837	322.54
544.96	428.54
545.083	622.54
545.206	1037.54
545.329	2382.54
545.453	10901.54
545.576	15251.54
545.699	15681.54
545.822	15681.54
545.945	15681.54
546.068	15681.54
546.191	15681.54
546.314	15681.54
546.437	15681.54
546.56	15681.54
546.683	15681.54
546.806	15681.54
546.929	15681.54
547.052	15681.54
547.175	15681.54
547.298	15681.54
547.421	15681.54
547.544	15681.54
547.667	3416.54
547.79	1803.54
547.913	921.54
548.036	845.54
548.159	616.54
548.282	584.54
548.405	474.54
548.528	488.54
548.651	409.54
548.774	388.54
548.897	341.54
549.02	340.54
549.143	307.54
549.266	292.54
549.389	251.54
549.512	242.54
549.635	232.54
549.758	227.54
549.881	218.54
550.004	198.54
550.127	211.54
550.25	179.54
550.373	162.54
550.496	188.54
550.619	148.54
550.742	137.54
550.865	138.54
550.988	156.54
551.111	156.54
551.234	147.54
551.356	128.54
551.479	146.54
551.602	131.54
551.725	121.54
551.848	140.54
551.971	137.54
552.094	130.54
552.217	107.54
552.34	111.54
552.463	94.54
552.586	100.54
552.709	89.54
552.832	95.54
552.955	126.54
553.077	128.54
553.2	106.54
553.323	73.54
553.446	90.54
553.569	85.54
553.692	95.54
553.815	86.54
553.938	102.54
554.061	106.54
554.184	96.54
554.306	98.54
554.429	84.54
554.552	84.54
554.675	60.54
554.798	74.54
554.921	74.54
555.044	60.54
555.167	84.54
555.29	79.54
555.412	69.54
555.535	79.54
555.658	69.54
555.781	78.54
555.904	75.54
556.027	83.54
556.15	83.54
556.272	83.54
556.395	78.54
556.518	59.54
556.641	59.54
556.764	76.54
556.887	82.54
557.01	67.54
557.132	50.54
557.255	73.54
557.378	69.54
557.501	61.54
557.624	54.54
557.747	73.54
557.869	71.54
557.992	82.54
558.115	86.54
558.238	84.54
558.361	57.54
558.483	88.54
558.606	71.54
558.729	51.54
558.852	67.54
558.975	49.54
559.098	58.54
559.22	54.54
559.343	49.54
559.466	49.54
559.589	35.54
559.712	63.54
559.834	51.54
559.957	38.54
560.08	39.54
560.203	56.54
560.325	52.54
560.448	74.54
560.571	49.54
560.694	59.54
560.817	60.54
560.939	49.54
561.062	58.54
561.185	56.54
561.308	70.54
561.43	54.54
561.553	68.54
561.676	76.54
561.799	77.54
561.921	66.54
562.044	62.54
562.167	46.54
562.29	67.54
562.413	61.54
562.535	55.54
562.658	57.54
562.781	46.54
562.903	66.54
563.026	89.54
563.149	128.54
563.272	120.54
563.394	118.54
563.517	109.54
563.64	69.54
563.763	56.54
563.885	61.54
564.008	47.54
564.131	28.54
564.254	19.54
564.376	24.54
564.499	36.54
564.622	18.54
564.744	29.54
564.867	32.54
564.99	38.54
565.113	52.54
565.235	33.54
565.358	38.54
565.481	16.54
565.603	39.54
565.726	35.54
565.849	42.54
565.971	39.54
566.094	29.54
566.217	47.54
566.34	28.54
566.462	33.54
566.585	28.54
566.708	48.54
566.83	33.54
566.953	38.54
567.076	42.54
567.198	33.54
567.321	31.54
567.444	35.54
567.566	43.54
567.689	38.54
567.812	23.54
567.934	40.54
568.057	38.54
568.18	38.54
568.302	30.54
568.425	24.54
568.548	40.54
568.67	32.54
568.793	33.54
568.916	36.54
569.038	26.54
569.161	15.54
569.283	46.54
569.406	22.54
569.529	14.54
569.651	36.54
569.774	25.54
569.897	19.54
570.019	46.54
570.142	31.54
570.265	20.54
570.387	21.54
570.51	57.54
570.632	23.54
570.755	24.54
570.878	33.54
571	38.54
571.123	24.54
571.246	22.54
571.368	12.54
571.491	34.54
571.613	21.54
571.736	23.54
571.859	27.54
571.981	16.54
572.104	13.54
572.226	33.54
572.349	11.54
572.472	28.54
572.594	38.54
572.717	42.54
572.839	30.54
572.962	57.54
573.085	34.54
573.207	33.54
573.33	35.54
573.452	23.54
573.575	45.54
573.697	30.54
573.82	23.54
573.943	17.54
574.065	34.54
574.188	25.54
574.31	46.54
574.433	27.54
574.555	53.54
574.678	30.54
574.801	50.54
574.923	39.54
575.046	37.54
575.168	25.54
575.291	30.54
575.413	27.54
575.536	38.54
575.659	42.54
575.781	42.54
575.904	56.54
576.026	68.54
576.149	72.54
576.271	118.54
576.394	203.54
576.516	518.54
576.639	3533.54
576.761	10038.54
576.884	8672.54
577.007	8592.54
577.129	7900.54
577.252	3679.54
577.374	1270.54
577.497	522.54
577.619	276.54
577.742	168.54
577.864	147.54
577.987	146.54
578.109	126.54
578.232	142.54
578.354	161.54
578.477	183.54
578.599	379.54
578.722	1945.54
578.844	8981.54
578.967	9702.54
579.089	8617.54
579.212	8941.54
579.334	5196.54
579.457	1900.54
579.579	700.54
579.702	299.54
579.824	216.54
579.947	116.54
580.069	97.54
580.192	87.54
580.314	95.54
580.437	67.54
580.559	90.54
580.682	47.54
580.804	82.54
580.927	66.54
581.049	64.54
581.172	46.54
581.294	37.54
581.417	53.54
581.539	56.54
581.662	56.54
581.784	59.54
581.907	39.54
582.029	43.54
582.152	28.54
582.274	35.54
582.396	36.54
582.519	34.54
582.641	35.54
582.764	17.54
582.886	24.54
583.009	26.54
583.131	32.54
583.254	31.54
583.376	45.54
583.499	38.54
583.621	36.54
583.743	45.54
583.866	40.54
583.988	38.54
584.111	21.54
584.233	16.54
584.356	42.54
584.478	50.54
584.601	19.54
584.723	15.54
584.845	40.54
584.968	37.54
585.09	21.54
585.213	44.54
585.335	17.54
585.458	25.54
585.58	25.54
585.702	42.54
585.825	28.54
585.947	46.54
586.07	23.54
586.192	22.54
586.315	39.54
586.437	21.54
586.559	23.54
586.682	11.54
586.804	38.54
586.927	21.54
587.049	34.54
587.171	30.54
587.294	35.54
587.416	43.54
587.539	25.54
587.661	17.54
587.783	26.54
587.906	24.54
588.028	22.54
588.151	33.54
588.273	40.54
588.395	22.54
588.518	13.54
588.64	20.54
588.763	37.54
588.885	28.54
589.007	39.54
589.13	32.54
589.252	6.54
589.375	22.54
589.497	28.54
589.619	33.54
589.742	31.54
589.864	25.54
589.986	44.54
590.109	14.54
590.231	27.54
590.354	15.54
590.476	-2.46
590.598	11.54
590.721	9.54
590.843	41.54
590.965	37.54
591.088	23.54
591.21	18.54
591.332	36.54
591.455	6.54
591.577	-4.46
591.7	30.54
591.822	22.54
591.944	19.54
592.067	38.54
592.189	43.54
592.311	30.54
592.434	18.54
592.556	40.54
592.678	34.54
592.801	26.54
592.923	20.54
593.045	16.54
593.168	35.54
593.29	21.54
593.412	24.54
593.535	21.54
593.657	14.54
593.779	18.54
593.902	28.54
594.024	14.54
594.146	37.54
594.269	37.54
594.391	21.54
594.513	28.54
594.636	45.54
594.758	26.54
594.88	33.54
595.003	27.54
595.125	21.54
595.247	24.54
595.37	28.54
595.492	19.54
595.614	40.54
595.737	22.54
595.859	19.54
595.981	14.54
596.104	20.54
596.226	21.54
596.348	19.54
596.471	10.54
596.593	24.54
596.715	4.54
596.838	8.54
596.96	25.54
597.082	38.54
597.204	34.54
597.327	37.54
597.449	24.54
597.571	33.54
597.694	27.54
597.816	30.54
597.938	23.54
598.061	15.54
598.183	4.54
598.305	16.54
598.427	11.54
598.55	7.54
598.672	18.54
598.794	20.54
598.917	11.54
599.039	21.54
599.161	23.54
599.283	22.54
599.406	22.54
599.528	42.54
599.65	37.54
599.773	32.54
599.895	45.54
600.017	28.54
600.139	27.54
600.262	11.54
600.384	32.54
600.506	32.54
600.628	35.54
600.751	28.54
600.873	23.54
600.995	38.54
601.118	26.54
601.24	27.54
601.362	24.54
601.484	44.54
601.607	28.54
601.729	22.54
601.851	25.54
601.973	22.54
602.096	35.54
602.218	28.54
602.34	31.54
602.462	30.54
602.585	11.54
602.707	13.54
602.829	12.54
602.951	22.54
603.074	11.54
603.196	8.54
603.318	3.54
603.44	35.54
603.563	19.54
603.685	16.54
603.807	27.54
603.929	22.54
604.052	23.54
604.174	42.54
604.296	18.54
604.418	20.54
604.541	31.54
604.663	35.54
604.785	21.54
604.907	15.54
605.03	4.54
605.152	40.54
605.274	2.54
605.396	20.54
605.519	17.54
605.641	3.54
605.763	8.54
605.885	20.54
606.008	23.54
606.13	24.54
606.252	17.54
606.374	13.54
606.496	15.54
606.619	20.54
606.741	9.54
606.863	43.54
606.985	27.54
607.108	12.54
607.23	19.54
607.352	14.54
607.474	10.54
607.596	38.54
607.719	29.54
607.841	18.54
607.963	22.54
608.085	24.54
608.207	31.54
608.33	14.54
608.452	7.54
608.574	5.54
608.696	31.54
608.819	18.54
608.941	15.54
609.063	18.54
609.185	3.54
609.307	20.54
609.43	40.54
609.552	23.54
609.674	8.54
609.796	31.54
609.918	26.54
610.041	-2.46
610.163	32.54
610.285	26.54
610.407	8.54
610.529	9.54
610.652	27.54
610.774	21.54
610.896	33.54
611.018	23.54
611.14	19.54
611.263	27.54
611.385	2.54
611.507	15.54
611.629	6.54
611.751	51.54
611.873	43.54
611.996	27.54
612.118	33.54
612.24	7.54
612.362	31.54
612.484	45.54
612.607	38.54
612.729	34.54
612.851	28.54
612.973	21.54
613.095	15.54
613.218	22.54
613.34	20.54
613.462	20.54
613.584	23.54
613.706	24.54
613.828	38.54
613.951	17.54
614.073	4.54
614.195	17.54
614.317	23.54
614.439	19.54
614.561	25.54
614.684	26.54
614.806	17.54
614.928	21.54
615.05	32.54
615.172	47.54
615.294	28.54
615.417	12.54
615.539	16.54
615.661	13.54
615.783	35.54
615.905	14.54
616.027	24.54
616.15	46.54
616.272	14.54
616.394	10.54
616.516	26.54
616.638	26.54
616.76	24.54
616.883	16.54
617.005	16.54
617.127	7.54
617.249	25.54
617.371	34.54
617.493	28.54
617.615	34.54
617.738	40.54
617.86	28.54
617.982	17.54
618.104	16.54
618.226	9.54
618.348	12.54
618.471	29.54
618.593	27.54
618.715	7.54
618.837	12.54
618.959	17.54
619.081	12.54
619.203	23.54
619.326	15.54
619.448	29.54
619.57	30.54
619.692	18.54
619.814	41.54
619.936	9.54
620.058	28.54
620.181	18.54
620.303	29.54
620.425	10.54
620.547	1.54
620.669	7.54
620.791	28.54
620.913	6.54
621.036	20.54
621.158	9.54
621.28	20.54
621.402	17.54
621.524	17.54
621.646	37.54
621.768	5.54
621.891	-4.46
622.013	16.54
622.135	9.54
622.257	0.54
622.379	7.54
622.501	21.54
622.623	34.54
622.745	29.54
622.868	11.54
622.99	9.54
623.112	21.54
623.234	12.54
623.356	26.54
623.478	2.54
623.6	19.54
623.722	7.54
623.845	31.54
623.967	15.54
624.089	18.54
624.211	10.54
624.333	14.54
624.455	26.54
624.577	12.54
624.699	20.54
624.822	15.54
624.944	8.54
625.066	32.54
625.188	18.54
625.31	26.54
625.432	34.54
625.554	13.54
625.676	35.54
625.799	14.54
625.921	12.54
626.043	22.54
626.165	10.54
626.287	-0.46
626.409	27.54
626.531	-12.46
626.653	8.54
626.775	32.54
626.898	33.54
627.02	30.54
627.142	40.54
627.264	40.54
627.386	23.54
627.508	28.54
627.63	2.54
627.752	15.54
627.874	8.54
627.997	15.54
628.119	13.54
628.241	22.54
628.363	46.54
628.485	20.54
628.607	12.54
628.729	23.54
628.851	10.54
628.973	10.54
629.096	-13.46
629.218	24.54
629.34	26.54
629.462	2.54
629.584	8.54
629.706	11.54
629.828	4.54
629.95	16.54
630.072	12.54
630.195	13.54
630.317	19.54
630.439	16.54
630.561	13.54
630.683	7.54
630.805	19.54
630.927	12.54
631.049	-1.46
631.171	5.54
631.293	25.54
631.416	15.54
631.538	22.54
631.66	7.54
631.782	41.54
631.904	24.54
632.026	0.54
632.148	12.54
632.27	0.54
632.392	14.54
632.514	16.54
632.637	19.54
632.759	-14.46
632.881	4.54
633.003	7.54
633.125	9.54
633.247	-1.46
633.369	25.54
633.491	16.54
633.613	30.54
633.735	19.54
633.858	15.54
633.98	20.54
634.102	10.54
634.224	9.54
634.346	14.54
634.468	24.54
634.59	4.54
634.712	6.54
634.834	13.54
634.956	-7.46
635.078	5.54
635.201	-6.46
635.323	8.54
635.445	16.54
635.567	-6.46
635.689	20.54
635.811	19.54
635.933	11.54
636.055	8.54
636.177	14.54
636.299	15.54
636.421	-2.46
636.544	8.54
636.666	21.54
636.788	12.54
636.91	11.54
637.032	13.54
637.154	31.54
637.276	47.54
637.398	28.54
637.52	28.54
637.642	4.54
637.764	11.54
637.887	18.54
638.009	7.54
638.131	8.54
638.253	4.54
638.375	31.54
638.497	8.54
638.619	0.54
638.741	13.54
638.863	13.54
638.985	-0.46
639.107	5.54
639.23	3.54
639.352	7.54
639.474	8.54
639.596	15.54
639.718	8.54
639.84	18.54
639.962	10.54
640.084	12.54
640.206	23.54
640.328	-1.46
640.45	14.54
640.573	-3.46
640.695	0.54
640.817	15.54
640.939	18.54
641.061	3.54
641.183	-1.46
641.305	10.54
641.427	4.54
641.549	21.54
641.671	18.54
641.793	16.54
641.915	31.54
642.038	15.54
642.16	23.54
642.282	3.54
642.404	7.54
642.526	12.54
642.648	7.54
642.77	9.54
642.892	18.54
643.014	14.54
643.136	19.54
643.258	18.54
643.381	19.54
643.503	29.54
643.625	11.54
643.747	-3.46
643.869	4.54
643.991	19.54
644.113	14.54
644.235	7.54
644.357	14.54
644.479	25.54
644.601	11.54
644.723	17.54
644.846	7.54
644.968	2.54
645.09	19.54
645.212	21.54
645.334	22.54
645.456	3.54
645.578	10.54
645.7	23.54
645.822	16.54
645.944	24.54
646.066	31.54
646.188	5.54
646.311	27.54
646.433	24.54
646.555	36.54
646.677	27.54
646.799	2.54
646.921	14.54
647.043	25.54
647.165	3.54
647.287	-0.46
647.409	8.54
647.531	18.54
647.654	-7.46
647.776	16.54
647.898	27.54
648.02	5.54
648.142	17.54
648.264	12.54
648.386	7.54
648.508	14.54
648.63	-5.46
648.752	18.54
648.874	2.54
648.997	4.54
649.119	5.54
649.241	2.54
649.363	14.54
649.485	20.54
649.607	1.54
649.729	8.54
649.851	26.54
649.973	5.54
650.095	12.54
650.217	-4.46
650.34	2.54
650.462	18.54
650.584	13.54
650.706	18.54
650.828	20.54
650.95	-7.46
651.072	4.54
651.194	-7.46
651.316	-4.46
651.438	12.54
651.56	-5.46
651.683	-8.46
651.805	4.54
651.927	4.54
652.049	8.54
652.171	10.54
652.293	5.54
652.415	6.54
652.537	-1.46
652.659	-9.46
652.781	27.54
652.903	38.54
653.026	31.54
653.148	10.54
653.27	10.54
653.392	23.54
653.514	11.54
653.636	8.54
653.758	0.54
653.88	-6.46
654.002	2.54
654.124	8.54
654.247	18.54
654.369	23.54
654.491	1.54
654.613	16.54
654.735	2.54
654.857	4.54
654.979	3.54
655.101	4.54
655.223	51.54
655.345	12.54
655.468	18.54
655.59	-0.46
655.712	7.54
655.834	13.54
655.956	13.54
656.078	-4.46
656.2	12.54
656.322	-0.46
656.444	-11.46
656.566	3.54
656.689	10.54
656.811	6.54
656.933	10.54
657.055	0.54
657.177	2.54
657.299	8.54
657.421	4.54
657.543	15.54
657.665	-16.46
657.787	-5.46
657.91	4.54
658.032	4.54
658.154	-3.46
658.276	9.54
658.398	-2.46
658.52	1.54
658.642	7.54
658.764	4.54
658.886	-4.46
659.009	18.54
659.131	11.54
659.253	17.54
659.375	18.54
659.497	20.54
659.619	19.54
659.741	-0.46
659.863	-3.46
659.985	-2.46
660.108	13.54
660.23	9.54
660.352	8.54
660.474	23.54
660.596	18.54
660.718	10.54
660.84	9.54
660.962	27.54
661.084	18.54
661.207	6.54
661.329	23.54
661.451	4.54
661.573	6.54
661.695	33.54
661.817	27.54
661.939	29.54
662.061	12.54
662.184	2.54
662.306	4.54
662.428	22.54
662.55	14.54
662.672	2.54
662.794	7.54
662.916	11.54
663.038	22.54
663.161	24.54
663.283	11.54
663.405	9.54
663.527	9.54
663.649	30.54
663.771	12.54
663.893	12.54
664.015	23.54
664.138	11.54
664.26	22.54
664.382	11.54
664.504	6.54
664.626	-7.46
664.748	2.54
664.87	-16.46
664.992	12.54
665.115	13.54
665.237	14.54
665.359	3.54
665.481	11.54
665.603	7.54
665.725	17.54
665.847	6.54
665.97	6.54
666.092	10.54
666.214	10.54
666.336	10.54
666.458	17.54
666.58	19.54
666.702	-8.46
666.825	2.54
666.947	-8.46
667.069	4.54
667.191	4.54
667.313	34.54
667.435	10.54
667.557	-9.46
667.68	5.54
667.802	-0.46
667.924	-11.46
668.046	-3.46
668.168	26.54
668.29	18.54
668.412	2.54
668.535	6.54
668.657	7.54
668.779	11.54
668.901	5.54
669.023	18.54
669.145	-7.46
669.267	5.54
669.39	12.54
669.512	-4.46
669.634	23.54
669.756	6.54
669.878	2.54
670	21.54
670.123	27.54
670.245	16.54
670.367	29.54
670.489	13.54
670.611	18.54
670.733	12.54
670.856	20.54
670.978	24.54
671.1	9.54
671.222	2.54
671.344	2.54
671.466	4.54
671.589	-3.46
671.711	6.54
671.833	8.54
671.955	6.54
672.077	-10.46
672.199	8.54
672.322	2.54
672.444	15.54
672.566	28.54
672.688	14.54
672.81	15.54
672.932	5.54
673.055	10.54
673.177	1.54
673.299	19.54
673.421	1.54
673.543	-2.46
673.665	39.54
673.788	16.54
673.91	12.54
674.032	-1.46
674.154	10.54
674.276	12.54
674.399	-11.46
674.521	-2.46
674.643	3.54
674.765	17.54
674.887	11.54
675.009	7.54
675.132	1.54
675.254	0.54
675.376	2.54
675.498	32.54
675.62	25.54
675.743	9.54
675.865	20.54
675.987	-18.46
676.109	12.54
676.231	-3.46
676.354	21.54
676.476	13.54
676.598	14.54
676.72	5.54
676.842	20.54
676.965	-5.46
677.087	15.54
677.209	22.54
677.331	18.54
677.453	6.54
677.576	6.54
677.698	11.54
677.82	10.54
677.942	-9.46
678.064	-1.46
678.187	16.54
678.309	6.54
678.431	-11.46
678.553	2.54
678.675	25.54
678.798	34.54
678.92	9.54
679.042	9.54
679.164	2.54
679.286	12.54
679.409	11.54
679.531	-1.46
679.653	-7.46
679.775	-1.46
679.898	6.54
680.02	-4.46
680.142	-0.46
680.264	6.54
680.386	2.54
680.509	22.54
680.631	7.54
680.753	11.54
680.875	-0.46
680.998	16.54
681.12	-0.46
681.242	28.54
681.364	5.54
681.486	24.54
681.609	3.54
681.731	-15.46
681.853	-4.46
681.975	11.54
682.098	33.54
682.22	37.54
682.342	12.54
682.464	18.54
682.587	15.54
682.709	0.54
682.831	-19.46
682.953	-2.46
683.076	-0.46
683.198	25.54
683.32	11.54
683.442	3.54
683.565	18.54
683.687	14.54
683.809	19.54
683.931	10.54
684.054	10.54
684.176	8.54
684.298	16.54
684.42	16.54
684.543	18.54
684.665	7.54
684.787	20.54
684.909	16.54
685.032	22.54
685.154	-14.46
685.276	20.54
685.398	-4.46
685.521	11.54
685.643	8.54
685.765	14.54
685.887	6.54
686.01	6.54
686.132	17.54
686.254	7.54
686.377	29.54
686.499	21.54
686.621	20.54
686.743	3.54
686.866	3.54
686.988	13.54
687.11	29.54
687.232	10.54
687.355	5.54
687.477	-1.46
687.599	-5.46
687.722	-2.46
687.844	9.54
687.966	10.54
688.088	15.54
688.211	35.54
688.333	18.54
688.455	16.54
688.578	13.54
688.7	36.54
688.822	15.54
688.944	-3.46
689.067	43.54
689.189	9.54
689.311	-9.46
689.434	-5.46
689.556	-4.46
689.678	18.54
689.801	5.54
689.923	10.54
690.045	4.54
690.167	26.54
690.29	10.54
690.412	22.54
690.534	-5.46
690.657	-6.46
690.779	1.54
690.901	4.54
691.024	17.54
691.146	15.54
691.268	7.54
691.391	25.54
691.513	19.54
691.635	25.54
691.758	33.54
691.88	8.54
692.002	3.54
692.125	6.54
692.247	14.54
692.369	10.54
692.492	-18.46
692.614	2.54
692.736	8.54
692.859	19.54
692.981	8.54
693.103	10.54
693.226	16.54
693.348	20.54
693.47	15.54
693.593	19.54
693.715	28.54
693.837	38.54
693.96	15.54
694.082	14.54
694.204	31.54
694.327	8.54
694.449	-1.46
694.571	13.54
694.694	0.54
694.816	19.54
694.938	-5.46
695.061	16.54
695.183	9.54
695.305	11.54
695.428	14.54
695.55	12.54
695.672	6.54
695.795	24.54
695.917	23.54
696.04	-7.46
696.162	-5.46
696.284	0.54
696.407	5.54
696.529	-5.46
696.651	30.54
696.774	2.54
696.896	22.54
697.019	7.54
697.141	4.54
697.263	-9.46
697.386	5.54
697.508	2.54
697.63	22.54
697.753	22.54
697.875	14.54
697.998	7.54
698.12	7.54
698.242	8.54
698.365	14.54
698.487	8.54
698.61	14.54
698.732	-3.46
698.854	-6.46
698.977	5.54
699.099	23.54
699.221	-4.46
699.344	-5.46
699.466	20.54
699.589	21.54
699.711	4.54
699.834	11.54
699.956	3.54
700.078	-4.46
700.201	6.54
700.323	15.54
700.446	7.54
700.568	1.54
700.69	11.54
700.813	8.54
700.935	-1.46
701.058	11.54
701.18	17.54
701.302	6.54
701.425	7.54
701.547	14.54
701.67	8.54
701.792	3.54
701.915	-1.46
702.037	4.54
702.159	2.54
702.282	18.54
702.404	19.54
702.527	9.54
702.649	43.54
702.772	24.54
702.894	10.54
703.017	13.54
703.139	5.54
703.261	38.54
703.384	27.54
703.506	4.54
703.629	4.54
703.751	6.54
703.874	6.54
703.996	3.54
704.119	8.54
704.241	1.54
704.364	-6.46
704.486	12.54
704.608	33.54
704.731	7.54
704.853	10.54
704.976	9.54
705.098	3.54
705.221	8.54
705.343	0.54
705.466	33.54
705.588	32.54
705.711	6.54
705.833	15.54
705.956	0.54
706.078	4.54
706.201	18.54
706.323	13.54
706.446	4.54
