Data from LowRes_mercury_15_20_11_07_2024_HR4C61881__25__15-23-34-771.txt Node

Date: Thu Nov 07 15:23:34 EST 2024
User: crc00042
Spectrometer: HR4C6188
Trigger mode: 4
Integration Time (sec): 1.000000E-1
Scans to average: 1
Electric dark correction enabled: true
Nonlinearity correction enabled: false
Boxcar width: 0
XAxis mode: Wavelengths
Number of Pixels in Spectrum: 3648
>>>>>Begin Spectral Data<<<<<
245.66	-81.54
245.797	-81.54
245.934	-81.54
246.071	-61.54
246.208	19.46
246.344	11.46
246.481	-11.54
246.618	-0.54
246.755	15.46
246.892	1.46
247.029	6.46
247.165	-4.54
247.302	15.46
247.439	-5.54
247.576	3.46
247.713	-17.54
247.849	-2.54
247.986	-11.54
248.123	15.46
248.26	-6.54
248.396	18.46
248.533	11.46
248.67	2.46
248.806	15.46
248.943	-1.54
249.08	21.46
249.216	17.46
249.353	-15.54
249.49	-18.54
249.626	-9.54
249.763	-10.54
249.9	-8.54
250.036	3.46
250.173	10.46
250.309	3.46
250.446	4.46
250.582	-0.54
250.719	-5.54
250.856	-18.54
250.992	-11.54
251.129	-4.54
251.265	-2.54
251.402	-7.54
251.538	-11.54
251.675	-4.54
251.811	9.46
251.948	23.46
252.084	-0.54
252.221	3.46
252.357	-8.54
252.493	25.46
252.63	6.46
252.766	10.46
252.903	21.46
253.039	12.46
253.175	-6.54
253.312	9.46
253.448	6.46
253.585	4.46
253.721	10.46
253.857	-10.54
253.994	28.46
254.13	11.46
254.266	5.46
254.403	1.46
254.539	13.46
254.675	12.46
254.811	14.46
254.948	-1.54
255.084	2.46
255.22	0.46
255.356	17.46
255.493	5.46
255.629	0.46
255.765	2.46
255.901	-6.54
256.037	9.46
256.174	7.46
256.31	-13.54
256.446	-6.54
256.582	5.46
256.718	5.46
256.854	6.46
256.991	25.46
257.127	20.46
257.263	-0.54
257.399	23.46
257.535	12.46
257.671	9.46
257.807	1.46
257.943	-3.54
258.079	-10.54
258.215	-4.54
258.351	25.46
258.487	18.46
258.623	23.46
258.759	2.46
258.895	16.46
259.031	-9.54
259.167	-16.54
259.303	28.46
259.439	8.46
259.575	18.46
259.711	7.46
259.847	-5.54
259.983	3.46
260.119	-11.54
260.255	4.46
260.391	12.46
260.527	-3.54
260.663	14.46
260.799	19.46
260.934	9.46
261.07	7.46
261.206	-4.54
261.342	-10.54
261.478	9.46
261.614	18.46
261.749	10.46
261.885	-2.54
262.021	-0.54
262.157	25.46
262.293	15.46
262.428	-12.54
262.564	-3.54
262.7	5.46
262.836	10.46
262.971	14.46
263.107	20.46
263.243	34.46
263.378	9.46
263.514	1.46
263.65	-7.54
263.785	-9.54
263.921	2.46
264.057	3.46
264.192	9.46
264.328	23.46
264.464	3.46
264.599	24.46
264.735	14.46
264.871	-10.54
265.006	-1.54
265.142	10.46
265.277	11.46
265.413	22.46
265.548	-0.54
265.684	13.46
265.819	11.46
265.955	-14.54
266.091	3.46
266.226	-14.54
266.362	3.46
266.497	1.46
266.633	11.46
266.768	0.46
266.903	22.46
267.039	11.46
267.174	13.46
267.31	16.46
267.445	-1.54
267.581	-7.54
267.716	13.46
267.851	-2.54
267.987	27.46
268.122	30.46
268.258	1.46
268.393	-7.54
268.528	16.46
268.664	-3.54
268.799	11.46
268.934	-7.54
269.07	4.46
269.205	7.46
269.34	8.46
269.476	8.46
269.611	7.46
269.746	19.46
269.881	16.46
270.017	10.46
270.152	9.46
270.287	22.46
270.422	-6.54
270.558	-10.54
270.693	15.46
270.828	-12.54
270.963	5.46
271.098	-5.54
271.234	3.46
271.369	21.46
271.504	19.46
271.639	7.46
271.774	10.46
271.909	38.46
272.045	-3.54
272.18	3.46
272.315	10.46
272.45	14.46
272.585	3.46
272.72	21.46
272.855	15.46
272.99	38.46
273.125	7.46
273.26	-3.54
273.395	-5.54
273.53	-2.54
273.665	15.46
273.8	13.46
273.935	19.46
274.07	13.46
274.205	25.46
274.34	14.46
274.475	6.46
274.61	30.46
274.745	26.46
274.88	22.46
275.015	-4.54
275.15	2.46
275.285	29.46
275.42	25.46
275.555	32.46
275.69	23.46
275.825	0.46
275.959	-3.54
276.094	6.46
276.229	-15.54
276.364	-11.54
276.499	0.46
276.634	-9.54
276.768	-4.54
276.903	19.46
277.038	6.46
277.173	3.46
277.308	-8.54
277.442	3.46
277.577	-9.54
277.712	3.46
277.847	12.46
277.981	9.46
278.116	-2.54
278.251	9.46
278.386	12.46
278.52	6.46
278.655	-1.54
278.79	19.46
278.924	-1.54
279.059	27.46
279.194	-19.54
279.328	26.46
279.463	16.46
279.598	24.46
279.732	12.46
279.867	17.46
280.001	30.46
280.136	6.46
280.271	29.46
280.405	20.46
280.54	-4.54
280.674	-5.54
280.809	24.46
280.943	-11.54
281.078	6.46
281.213	15.46
281.347	16.46
281.482	22.46
281.616	13.46
281.751	9.46
281.885	-5.54
282.02	3.46
282.154	10.46
282.288	11.46
282.423	6.46
282.557	-4.54
282.692	8.46
282.826	14.46
282.961	44.46
283.095	11.46
283.229	6.46
283.364	5.46
283.498	13.46
283.633	22.46
283.767	5.46
283.901	4.46
284.036	6.46
284.17	17.46
284.304	14.46
284.439	3.46
284.573	5.46
284.707	14.46
284.842	7.46
284.976	4.46
285.11	-18.54
285.244	7.46
285.379	47.46
285.513	7.46
285.647	2.46
285.781	14.46
285.916	28.46
286.05	11.46
286.184	42.46
286.318	24.46
286.453	17.46
286.587	-14.54
286.721	-0.54
286.855	20.46
286.989	22.46
287.123	-1.54
287.258	1.46
287.392	7.46
287.526	18.46
287.66	3.46
287.794	15.46
287.928	-8.54
288.062	35.46
288.196	1.46
288.33	22.46
288.464	17.46
288.598	32.46
288.733	20.46
288.867	31.46
289.001	14.46
289.135	6.46
289.269	-8.54
289.403	11.46
289.537	17.46
289.671	11.46
289.805	1.46
289.939	-1.54
290.073	-0.54
290.207	20.46
290.34	7.46
290.474	7.46
290.608	16.46
290.742	-1.54
290.876	12.46
291.01	4.46
291.144	29.46
291.278	25.46
291.412	25.46
291.546	13.46
291.679	12.46
291.813	5.46
291.947	10.46
292.081	1.46
292.215	2.46
292.349	15.46
292.482	31.46
292.616	-2.54
292.75	11.46
292.884	29.46
293.018	15.46
293.151	-13.54
293.285	13.46
293.419	2.46
293.553	18.46
293.686	4.46
293.82	17.46
293.954	41.46
294.088	22.46
294.221	-4.54
294.355	4.46
294.489	14.46
294.622	-16.54
294.756	15.46
294.89	14.46
295.023	14.46
295.157	3.46
295.291	17.46
295.424	24.46
295.558	16.46
295.691	30.46
295.825	2.46
295.959	5.46
296.092	5.46
296.226	-6.54
296.359	0.46
296.493	17.46
296.627	-1.54
296.76	21.46
296.894	12.46
297.027	15.46
297.161	12.46
297.294	2.46
297.428	2.46
297.561	22.46
297.695	14.46
297.828	22.46
297.962	5.46
298.095	0.46
298.229	5.46
298.362	4.46
298.495	17.46
298.629	1.46
298.762	6.46
298.896	7.46
299.029	7.46
299.162	27.46
299.296	19.46
299.429	12.46
299.563	14.46
299.696	-10.54
299.829	7.46
299.963	-2.54
300.096	16.46
300.229	15.46
300.363	20.46
300.496	24.46
300.629	0.46
300.763	0.46
300.896	8.46
301.029	6.46
301.162	10.46
301.296	-11.54
301.429	19.46
301.562	16.46
301.695	14.46
301.829	6.46
301.962	40.46
302.095	17.46
302.228	-1.54
302.362	14.46
302.495	2.46
302.628	11.46
302.761	11.46
302.894	-3.54
303.027	11.46
303.161	-25.54
303.294	0.46
303.427	18.46
303.56	8.46
303.693	9.46
303.826	-2.54
303.959	5.46
304.092	19.46
304.225	-5.54
304.359	7.46
304.492	19.46
304.625	7.46
304.758	26.46
304.891	7.46
305.024	5.46
305.157	10.46
305.29	-4.54
305.423	14.46
305.556	26.46
305.689	12.46
305.822	-4.54
305.955	3.46
306.088	0.46
306.221	5.46
306.354	5.46
306.487	0.46
306.62	-7.54
306.752	3.46
306.885	11.46
307.018	1.46
307.151	20.46
307.284	12.46
307.417	9.46
307.55	9.46
307.683	6.46
307.816	23.46
307.948	28.46
308.081	28.46
308.214	3.46
308.347	12.46
308.48	6.46
308.613	-5.54
308.745	9.46
308.878	-5.54
309.011	13.46
309.144	9.46
309.277	7.46
309.409	7.46
309.542	-2.54
309.675	14.46
309.808	10.46
309.94	25.46
310.073	-0.54
310.206	20.46
310.339	16.46
310.471	-13.54
310.604	15.46
310.737	1.46
310.869	0.46
311.002	0.46
311.135	10.46
311.267	-5.54
311.4	4.46
311.533	19.46
311.665	4.46
311.798	11.46
311.93	20.46
312.063	11.46
312.196	56.46
312.328	91.46
312.461	55.46
312.593	38.46
312.726	54.46
312.859	103.46
312.991	172.46
313.124	53.46
313.256	26.46
313.389	25.46
313.521	13.46
313.654	14.46
313.786	2.46
313.919	-9.54
314.051	21.46
314.184	26.46
314.316	13.46
314.449	0.46
314.581	9.46
314.714	6.46
314.846	-1.54
314.978	-2.54
315.111	-7.54
315.243	31.46
315.376	17.46
315.508	19.46
315.641	-1.54
315.773	27.46
315.905	23.46
316.038	12.46
316.17	-0.54
316.302	13.46
316.435	12.46
316.567	-3.54
316.699	20.46
316.832	3.46
316.964	6.46
317.096	4.46
317.229	14.46
317.361	-13.54
317.493	-3.54
317.625	-1.54
317.758	4.46
317.89	4.46
318.022	0.46
318.155	10.46
318.287	17.46
318.419	-0.54
318.551	9.46
318.683	16.46
318.816	-1.54
318.948	4.46
319.08	-14.54
319.212	13.46
319.344	6.46
319.477	3.46
319.609	27.46
319.741	17.46
319.873	14.46
320.005	13.46
320.137	5.46
320.269	-0.54
320.401	0.46
320.534	-0.54
320.666	-10.54
320.798	-18.54
320.93	11.46
321.062	7.46
321.194	-2.54
321.326	3.46
321.458	9.46
321.59	-14.54
321.722	-5.54
321.854	13.46
321.986	4.46
322.118	26.46
322.25	2.46
322.382	1.46
322.514	22.46
322.646	-8.54
322.778	0.46
322.91	9.46
323.042	31.46
323.174	16.46
323.306	3.46
323.438	-12.54
323.57	22.46
323.702	7.46
323.834	9.46
323.966	13.46
324.097	5.46
324.229	17.46
324.361	9.46
324.493	13.46
324.625	8.46
324.757	4.46
324.889	14.46
325.021	-0.54
325.152	5.46
325.284	17.46
325.416	11.46
325.548	21.46
325.68	5.46
325.811	23.46
325.943	10.46
326.075	3.46
326.207	13.46
326.339	26.46
326.47	7.46
326.602	11.46
326.734	3.46
326.866	18.46
326.997	-2.54
327.129	-0.54
327.261	-9.54
327.392	4.46
327.524	28.46
327.656	-1.54
327.787	29.46
327.919	-1.54
328.051	18.46
328.182	34.46
328.314	26.46
328.446	0.46
328.577	24.46
328.709	-7.54
328.841	-20.54
328.972	-9.54
329.104	22.46
329.235	6.46
329.367	-9.54
329.499	8.46
329.63	16.46
329.762	3.46
329.893	18.46
330.025	10.46
330.156	-12.54
330.288	9.46
330.419	2.46
330.551	28.46
330.683	3.46
330.814	-4.54
330.946	22.46
331.077	-4.54
331.208	-3.54
331.34	1.46
331.471	-4.54
331.603	3.46
331.734	-10.54
331.866	14.46
331.997	9.46
332.129	7.46
332.26	-8.54
332.392	16.46
332.523	9.46
332.654	-1.54
332.786	8.46
332.917	-1.54
333.048	18.46
333.18	15.46
333.311	15.46
333.443	13.46
333.574	14.46
333.705	59.46
333.837	48.46
333.968	124.46
334.099	246.46
334.231	219.46
334.362	69.46
334.493	36.46
334.624	28.46
334.756	13.46
334.887	29.46
335.018	15.46
335.15	18.46
335.281	10.46
335.412	30.46
335.543	12.46
335.675	2.46
335.806	-15.54
335.937	8.46
336.068	18.46
336.199	51.46
336.331	0.46
336.462	15.46
336.593	14.46
336.724	4.46
336.855	-8.54
336.986	21.46
337.118	17.46
337.249	24.46
337.38	12.46
337.511	13.46
337.642	21.46
337.773	13.46
337.904	19.46
338.035	1.46
338.166	5.46
338.298	21.46
338.429	-4.54
338.56	33.46
338.691	31.46
338.822	33.46
338.953	36.46
339.084	29.46
339.215	30.46
339.346	4.46
339.477	-6.54
339.608	26.46
339.739	14.46
339.87	8.46
340.001	16.46
340.132	19.46
340.263	7.46
340.394	25.46
340.525	5.46
340.656	10.46
340.787	-0.54
340.918	36.46
341.049	28.46
341.179	34.46
341.31	14.46
341.441	22.46
341.572	20.46
341.703	31.46
341.834	-4.54
341.965	22.46
342.096	19.46
342.227	18.46
342.357	6.46
342.488	15.46
342.619	16.46
342.75	44.46
342.881	13.46
343.012	41.46
343.142	48.46
343.273	19.46
343.404	27.46
343.535	49.46
343.666	49.46
343.796	46.46
343.927	38.46
344.058	44.46
344.189	35.46
344.319	23.46
344.45	41.46
344.581	20.46
344.712	15.46
344.842	23.46
344.973	34.46
345.104	33.46
345.234	29.46
345.365	12.46
345.496	30.46
345.626	36.46
345.757	38.46
345.888	-0.54
346.018	46.46
346.149	41.46
346.28	45.46
346.41	27.46
346.541	29.46
346.672	21.46
346.802	44.46
346.933	42.46
347.063	37.46
347.194	38.46
347.325	39.46
347.455	46.46
347.586	39.46
347.716	29.46
347.847	45.46
347.977	46.46
348.108	52.46
348.238	44.46
348.369	51.46
348.499	38.46
348.63	54.46
348.76	45.46
348.891	62.46
349.021	62.46
349.152	74.46
349.282	68.46
349.413	42.46
349.543	54.46
349.674	30.46
349.804	44.46
349.935	6.46
350.065	23.46
350.196	17.46
350.326	35.46
350.456	8.46
350.587	41.46
350.717	22.46
350.848	31.46
350.978	27.46
351.108	14.46
351.239	47.46
351.369	25.46
351.499	34.46
351.63	55.46
351.76	22.46
351.89	26.46
352.021	35.46
352.151	32.46
352.281	36.46
352.412	39.46
352.542	21.46
352.672	38.46
352.803	32.46
352.933	42.46
353.063	29.46
353.193	27.46
353.324	26.46
353.454	35.46
353.584	32.46
353.714	1.46
353.845	25.46
353.975	38.46
354.105	15.46
354.235	32.46
354.365	19.46
354.496	41.46
354.626	34.46
354.756	52.46
354.886	24.46
355.016	26.46
355.146	39.46
355.277	35.46
355.407	21.46
355.537	32.46
355.667	44.46
355.797	38.46
355.927	22.46
356.057	36.46
356.187	27.46
356.318	23.46
356.448	36.46
356.578	35.46
356.708	44.46
356.838	35.46
356.968	33.46
357.098	47.46
357.228	35.46
357.358	34.46
357.488	19.46
357.618	65.46
357.748	51.46
357.878	39.46
358.008	27.46
358.138	13.46
358.268	27.46
358.398	42.46
358.528	30.46
358.658	40.46
358.788	22.46
358.918	36.46
359.048	52.46
359.178	37.46
359.308	30.46
359.438	48.46
359.568	42.46
359.698	42.46
359.827	28.46
359.957	33.46
360.087	33.46
360.217	24.46
360.347	36.46
360.477	51.46
360.607	17.46
360.737	28.46
360.866	25.46
360.996	16.46
361.126	21.46
361.256	42.46
361.386	48.46
361.516	45.46
361.645	24.46
361.775	43.46
361.905	17.46
362.035	48.46
362.165	48.46
362.294	47.46
362.424	62.46
362.554	49.46
362.684	42.46
362.813	42.46
362.943	66.46
363.073	49.46
363.203	77.46
363.332	79.46
363.462	76.46
363.592	115.46
363.721	122.46
363.851	155.46
363.981	196.46
364.111	267.46
364.24	341.46
364.37	519.46
364.5	882.46
364.629	1805.46
364.759	3896.46
364.888	6247.46
365.018	9387.46
365.148	14791.46
365.277	12924.46
365.407	4734.46
365.537	3107.46
365.666	4033.46
365.796	1820.46
365.925	793.46
366.055	768.46
366.184	998.46
366.314	1380.46
366.444	2469.46
366.573	2121.46
366.703	668.46
366.832	218.46
366.962	121.46
367.091	103.46
367.221	82.46
367.35	50.46
367.48	95.46
367.609	70.46
367.739	63.46
367.868	41.46
367.998	48.46
368.127	51.46
368.257	65.46
368.386	32.46
368.516	60.46
368.645	39.46
368.775	28.46
368.904	24.46
369.033	32.46
369.163	37.46
369.292	51.46
369.422	62.46
369.551	65.46
369.68	45.46
369.81	35.46
369.939	26.46
370.069	57.46
370.198	45.46
370.327	39.46
370.457	47.46
370.586	65.46
370.715	32.46
370.845	48.46
370.974	43.46
371.103	74.46
371.233	51.46
371.362	58.46
371.491	49.46
371.621	46.46
371.75	67.46
371.879	37.46
372.008	44.46
372.138	43.46
372.267	51.46
372.396	71.46
372.525	56.46
372.655	49.46
372.784	35.46
372.913	24.46
373.042	49.46
373.172	44.46
373.301	10.46
373.43	0.46
373.559	17.46
373.688	35.46
373.818	36.46
373.947	40.46
374.076	37.46
374.205	27.46
374.334	-6.54
374.463	10.46
374.593	25.46
374.722	30.46
374.851	27.46
374.98	27.46
375.109	23.46
375.238	28.46
375.367	40.46
375.496	25.46
375.625	17.46
375.755	43.46
375.884	45.46
376.013	38.46
376.142	-3.54
376.271	13.46
376.4	31.46
376.529	33.46
376.658	51.46
376.787	28.46
376.916	36.46
377.045	22.46
377.174	34.46
377.303	23.46
377.432	38.46
377.561	35.46
377.69	25.46
377.819	44.46
377.948	14.46
378.077	11.46
378.206	18.46
378.335	21.46
378.464	30.46
378.593	34.46
378.722	13.46
378.851	18.46
378.98	38.46
379.108	6.46
379.237	2.46
379.366	34.46
379.495	41.46
379.624	35.46
379.753	45.46
379.882	31.46
380.011	5.46
380.14	10.46
380.268	23.46
380.397	20.46
380.526	37.46
380.655	11.46
380.784	13.46
380.913	18.46
381.041	30.46
381.17	2.46
381.299	30.46
381.428	28.46
381.557	24.46
381.685	10.46
381.814	22.46
381.943	14.46
382.072	13.46
382.2	19.46
382.329	9.46
382.458	32.46
382.587	41.46
382.715	43.46
382.844	38.46
382.973	32.46
383.102	35.46
383.23	20.46
383.359	24.46
383.488	17.46
383.616	22.46
383.745	27.46
383.874	20.46
384.003	37.46
384.131	18.46
384.26	13.46
384.389	33.46
384.517	-1.54
384.646	15.46
384.774	35.46
384.903	30.46
385.032	42.46
385.16	39.46
385.289	14.46
385.418	18.46
385.546	22.46
385.675	36.46
385.803	29.46
385.932	40.46
386.06	10.46
386.189	27.46
386.318	29.46
386.446	27.46
386.575	38.46
386.703	42.46
386.832	25.46
386.96	-4.54
387.089	35.46
387.217	14.46
387.346	27.46
387.474	34.46
387.603	30.46
387.731	31.46
387.86	41.46
387.988	59.46
388.117	34.46
388.245	24.46
388.374	25.46
388.502	28.46
388.631	9.46
388.759	14.46
388.888	18.46
389.016	20.46
389.144	36.46
389.273	25.46
389.401	30.46
389.53	30.46
389.658	46.46
389.786	17.46
389.915	9.46
390.043	36.46
390.172	36.46
390.3	65.46
390.428	49.46
390.557	37.46
390.685	42.46
390.813	55.46
390.942	54.46
391.07	30.46
391.198	31.46
391.327	13.46
391.455	24.46
391.583	40.46
391.712	10.46
391.84	14.46
391.968	23.46
392.096	17.46
392.225	4.46
392.353	34.46
392.481	31.46
392.609	53.46
392.738	18.46
392.866	45.46
392.994	17.46
393.122	48.46
393.251	22.46
393.379	35.46
393.507	17.46
393.635	28.46
393.764	39.46
393.892	37.46
394.02	40.46
394.148	26.46
394.276	34.46
394.404	50.46
394.533	42.46
394.661	48.46
394.789	42.46
394.917	54.46
395.045	26.46
395.173	17.46
395.302	15.46
395.43	38.46
395.558	49.46
395.686	32.46
395.814	44.46
395.942	33.46
396.07	43.46
396.198	38.46
396.326	45.46
396.454	52.46
396.582	60.46
396.711	43.46
396.839	45.46
396.967	39.46
397.095	34.46
397.223	34.46
397.351	60.46
397.479	64.46
397.607	45.46
397.735	27.46
397.863	55.46
397.991	45.46
398.119	48.46
398.247	48.46
398.375	43.46
398.503	59.46
398.631	59.46
398.759	86.46
398.887	58.46
399.015	55.46
399.143	55.46
399.271	73.46
399.399	84.46
399.526	75.46
399.654	74.46
399.782	64.46
399.91	108.46
400.038	114.46
400.166	91.46
400.294	90.46
400.422	83.46
400.55	105.46
400.678	112.46
400.805	122.46
400.933	123.46
401.061	121.46
401.189	135.46
401.317	173.46
401.445	109.46
401.573	87.46
401.7	51.46
401.828	48.46
401.956	48.46
402.084	42.46
402.212	29.46
402.34	57.46
402.467	37.46
402.595	59.46
402.723	57.46
402.851	64.46
402.978	63.46
403.106	85.46
403.234	106.46
403.362	100.46
403.489	128.46
403.617	163.46
403.745	214.46
403.873	294.46
404	584.46
404.128	1454.46
404.256	3915.46
404.384	5041.46
404.511	5453.46
404.639	7137.46
404.767	11332.46
404.894	14614.46
405.022	4943.46
405.15	1277.46
405.277	425.46
405.405	258.46
405.533	123.46
405.66	120.46
405.788	60.46
405.916	55.46
406.043	39.46
406.171	63.46
406.299	75.46
406.426	78.46
406.554	53.46
406.681	73.46
406.809	52.46
406.937	76.46
407.064	79.46
407.192	138.46
407.319	313.46
407.447	513.46
407.574	542.46
407.702	619.46
407.83	835.46
407.957	1594.46
408.085	951.46
408.212	280.46
408.34	119.46
408.467	71.46
408.595	42.46
408.722	53.46
408.85	41.46
408.977	41.46
409.105	36.46
409.232	44.46
409.36	32.46
409.487	40.46
409.615	46.46
409.742	35.46
409.87	42.46
409.997	45.46
410.125	46.46
410.252	57.46
410.379	35.46
410.507	60.46
410.634	55.46
410.762	46.46
410.889	50.46
411.017	16.46
411.144	35.46
411.271	18.46
411.399	44.46
411.526	25.46
411.653	31.46
411.781	34.46
411.908	41.46
412.036	24.46
412.163	40.46
412.29	39.46
412.418	29.46
412.545	47.46
412.672	46.46
412.8	57.46
412.927	38.46
413.054	56.46
413.182	29.46
413.309	45.46
413.436	16.46
413.564	30.46
413.691	50.46
413.818	60.46
413.945	18.46
414.073	33.46
414.2	13.46
414.327	44.46
414.454	40.46
414.582	35.46
414.709	22.46
414.836	32.46
414.963	44.46
415.091	48.46
415.218	22.46
415.345	32.46
415.472	25.46
415.6	15.46
415.727	28.46
415.854	32.46
415.981	27.46
416.108	26.46
416.236	49.46
416.363	31.46
416.49	44.46
416.617	43.46
416.744	39.46
416.871	48.46
416.998	30.46
417.126	45.46
417.253	26.46
417.38	23.46
417.507	37.46
417.634	33.46
417.761	44.46
417.888	36.46
418.015	38.46
418.143	47.46
418.27	49.46
418.397	28.46
418.524	37.46
418.651	37.46
418.778	50.46
418.905	59.46
419.032	55.46
419.159	34.46
419.286	54.46
419.413	46.46
419.54	77.46
419.667	41.46
419.794	43.46
419.921	37.46
420.048	65.46
420.175	68.46
420.302	48.46
420.429	60.46
420.556	36.46
420.683	34.46
420.81	46.46
420.937	75.46
421.064	80.46
421.191	67.46
421.318	87.46
421.445	77.46
421.572	66.46
421.699	71.46
421.826	36.46
421.953	21.46
422.08	50.46
422.207	18.46
422.334	13.46
422.461	23.46
422.588	37.46
422.714	33.46
422.841	41.46
422.968	26.46
423.095	36.46
423.222	9.46
423.349	35.46
423.476	21.46
423.603	18.46
423.729	19.46
423.856	13.46
423.983	28.46
424.11	20.46
424.237	33.46
424.364	39.46
424.491	28.46
424.617	25.46
424.744	5.46
424.871	12.46
424.998	11.46
425.125	35.46
425.251	26.46
425.378	32.46
425.505	20.46
425.632	28.46
425.758	30.46
425.885	34.46
426.012	50.46
426.139	27.46
426.266	19.46
426.392	34.46
426.519	33.46
426.646	37.46
426.772	50.46
426.899	27.46
427.026	21.46
427.153	11.46
427.279	40.46
427.406	17.46
427.533	21.46
427.659	26.46
427.786	27.46
427.913	35.46
428.039	19.46
428.166	18.46
428.293	29.46
428.419	26.46
428.546	18.46
428.673	12.46
428.799	15.46
428.926	19.46
429.053	56.46
429.179	30.46
429.306	30.46
429.433	45.46
429.559	29.46
429.686	26.46
429.812	22.46
429.939	27.46
430.066	35.46
430.192	22.46
430.319	37.46
430.445	16.46
430.572	32.46
430.699	18.46
430.825	23.46
430.952	39.46
431.078	30.46
431.205	22.46
431.331	20.46
431.458	34.46
431.584	58.46
431.711	35.46
431.837	25.46
431.964	16.46
432.09	40.46
432.217	14.46
432.343	35.46
432.47	32.46
432.596	31.46
432.723	13.46
432.849	23.46
432.976	35.46
433.102	35.46
433.229	36.46
433.355	56.46
433.482	75.46
433.608	102.46
433.735	113.46
433.861	135.46
433.987	168.46
434.114	183.46
434.24	175.46
434.367	229.46
434.493	222.46
434.62	285.46
434.746	387.46
434.872	626.46
434.999	844.46
435.125	1728.46
435.252	5544.46
435.378	13389.46
435.504	15190.46
435.631	15395.46
435.757	15688.46
435.883	15688.46
436.01	15688.46
436.136	15688.46
436.262	15688.46
436.389	3461.46
436.515	2159.46
436.641	795.46
436.768	637.46
436.894	393.46
437.02	423.46
437.147	323.46
437.273	320.46
437.399	217.46
437.526	239.46
437.652	172.46
437.778	211.46
437.904	150.46
438.031	170.46
438.157	152.46
438.283	165.46
438.409	130.46
438.536	131.46
438.662	127.46
438.788	119.46
438.914	115.46
439.041	135.46
439.167	114.46
439.293	105.46
439.419	94.46
439.546	92.46
439.672	93.46
439.798	100.46
439.924	82.46
440.05	98.46
440.177	74.46
440.303	80.46
440.429	67.46
440.555	83.46
440.681	73.46
440.807	70.46
440.934	57.46
441.06	62.46
441.186	61.46
441.312	63.46
441.438	70.46
441.564	65.46
441.69	54.46
441.816	59.46
441.943	72.46
442.069	91.46
442.195	64.46
442.321	71.46
442.447	35.46
442.573	31.46
442.699	38.46
442.825	39.46
442.951	55.46
443.077	56.46
443.203	58.46
443.33	45.46
443.456	54.46
443.582	61.46
443.708	40.46
443.834	41.46
443.96	54.46
444.086	36.46
444.212	74.46
444.338	76.46
444.464	73.46
444.59	62.46
444.716	26.46
444.842	46.46
444.968	34.46
445.094	43.46
445.22	33.46
445.346	35.46
445.472	43.46
445.598	34.46
445.724	15.46
445.85	46.46
445.976	32.46
446.102	47.46
446.228	31.46
446.354	47.46
446.48	43.46
446.605	69.46
446.731	52.46
446.857	42.46
446.983	36.46
447.109	50.46
447.235	40.46
447.361	36.46
447.487	33.46
447.613	52.46
447.739	41.46
447.865	36.46
447.99	33.46
448.116	42.46
448.242	42.46
448.368	37.46
448.494	26.46
448.62	34.46
448.746	33.46
448.872	40.46
448.997	38.46
449.123	43.46
449.249	49.46
449.375	40.46
449.501	34.46
449.627	17.46
449.752	55.46
449.878	22.46
450.004	24.46
450.13	39.46
450.256	28.46
450.381	46.46
450.507	34.46
450.633	41.46
450.759	47.46
450.884	21.46
451.01	38.46
451.136	25.46
451.262	43.46
451.388	40.46
451.513	34.46
451.639	44.46
451.765	34.46
451.89	37.46
452.016	37.46
452.142	28.46
452.268	30.46
452.393	45.46
452.519	8.46
452.645	18.46
452.771	25.46
452.896	0.46
453.022	11.46
453.148	62.46
453.273	21.46
453.399	31.46
453.525	22.46
453.65	20.46
453.776	27.46
453.902	47.46
454.027	45.46
454.153	42.46
454.279	39.46
454.404	35.46
454.53	37.46
454.656	63.46
454.781	36.46
454.907	37.46
455.032	39.46
455.158	45.46
455.284	52.46
455.409	35.46
455.535	44.46
455.66	35.46
455.786	34.46
455.912	37.46
456.037	31.46
456.163	34.46
456.288	36.46
456.414	20.46
456.539	34.46
456.665	36.46
456.791	32.46
456.916	21.46
457.042	22.46
457.167	14.46
457.293	19.46
457.418	23.46
457.544	26.46
457.669	37.46
457.795	47.46
457.92	40.46
458.046	47.46
458.171	33.46
458.297	13.46
458.422	10.46
458.548	9.46
458.673	47.46
458.799	17.46
458.924	11.46
459.05	27.46
459.175	26.46
459.301	32.46
459.426	54.46
459.552	33.46
459.677	28.46
459.803	24.46
459.928	20.46
460.053	25.46
460.179	18.46
460.304	45.46
460.43	16.46
460.555	27.46
460.681	16.46
460.806	24.46
460.931	52.46
461.057	37.46
461.182	11.46
461.308	53.46
461.433	48.46
461.558	18.46
461.684	34.46
461.809	35.46
461.934	31.46
462.06	28.46
462.185	30.46
462.311	40.46
462.436	43.46
462.561	38.46
462.687	21.46
462.812	15.46
462.937	23.46
463.063	9.46
463.188	10.46
463.313	49.46
463.439	26.46
463.564	26.46
463.689	49.46
463.814	30.46
463.94	25.46
464.065	33.46
464.19	42.46
464.316	32.46
464.441	27.46
464.566	7.46
464.692	31.46
464.817	22.46
464.942	28.46
465.067	19.46
465.193	15.46
465.318	35.46
465.443	37.46
465.568	15.46
465.694	33.46
465.819	46.46
465.944	42.46
466.069	34.46
466.194	26.46
466.32	43.46
466.445	30.46
466.57	14.46
466.695	38.46
466.82	30.46
466.946	39.46
467.071	28.46
467.196	42.46
467.321	27.46
467.446	48.46
467.572	57.46
467.697	42.46
467.822	31.46
467.947	60.46
468.072	37.46
468.197	19.46
468.323	16.46
468.448	42.46
468.573	21.46
468.698	26.46
468.823	49.46
468.948	53.46
469.073	32.46
469.198	42.46
469.324	62.46
469.449	17.46
469.574	45.46
469.699	46.46
469.824	40.46
469.949	31.46
470.074	45.46
470.199	57.46
470.324	26.46
470.449	48.46
470.574	50.46
470.7	49.46
470.825	40.46
470.95	54.46
471.075	44.46
471.2	51.46
471.325	37.46
471.45	42.46
471.575	31.46
471.7	35.46
471.825	38.46
471.95	39.46
472.075	25.46
472.2	31.46
472.325	48.46
472.45	39.46
472.575	29.46
472.7	34.46
472.825	30.46
472.95	25.46
473.075	45.46
473.2	29.46
473.325	39.46
473.45	43.46
473.575	43.46
473.7	38.46
473.825	34.46
473.95	25.46
474.075	28.46
474.2	15.46
474.325	16.46
474.45	46.46
474.574	40.46
474.699	35.46
474.824	28.46
474.949	16.46
475.074	19.46
475.199	37.46
475.324	28.46
475.449	13.46
475.574	39.46
475.699	38.46
475.824	17.46
475.949	19.46
476.073	20.46
476.198	27.46
476.323	29.46
476.448	25.46
476.573	24.46
476.698	41.46
476.823	29.46
476.947	47.46
477.072	38.46
477.197	29.46
477.322	25.46
477.447	31.46
477.572	43.46
477.697	31.46
477.821	20.46
477.946	36.46
478.071	35.46
478.196	32.46
478.321	20.46
478.445	22.46
478.57	11.46
478.695	9.46
478.82	15.46
478.945	37.46
479.069	22.46
479.194	25.46
479.319	27.46
479.444	42.46
479.569	9.46
479.693	41.46
479.818	32.46
479.943	42.46
480.068	33.46
480.192	31.46
480.317	23.46
480.442	20.46
480.567	2.46
480.691	10.46
480.816	6.46
480.941	6.46
481.066	43.46
481.19	32.46
481.315	20.46
481.44	28.46
481.564	15.46
481.689	27.46
481.814	34.46
481.938	25.46
482.063	6.46
482.188	21.46
482.313	14.46
482.437	17.46
482.562	12.46
482.687	46.46
482.811	34.46
482.936	10.46
483.061	25.46
483.185	29.46
483.31	39.46
483.435	35.46
483.559	37.46
483.684	18.46
483.808	45.46
483.933	23.46
484.058	25.46
484.182	21.46
484.307	34.46
484.432	23.46
484.556	27.46
484.681	11.46
484.805	21.46
484.93	34.46
485.055	29.46
485.179	44.46
485.304	20.46
485.428	27.46
485.553	6.46
485.678	11.46
485.802	14.46
485.927	35.46
486.051	41.46
486.176	34.46
486.3	13.46
486.425	38.46
486.549	25.46
486.674	37.46
486.799	18.46
486.923	17.46
487.048	21.46
487.172	27.46
487.297	14.46
487.421	17.46
487.546	32.46
487.67	30.46
487.795	18.46
487.919	35.46
488.044	34.46
488.168	41.46
488.293	40.46
488.417	14.46
488.542	22.46
488.666	30.46
488.791	35.46
488.915	31.46
489.04	29.46
489.164	27.46
489.289	34.46
489.413	2.46
489.538	39.46
489.662	41.46
489.786	30.46
489.911	23.46
490.035	26.46
490.16	17.46
490.284	11.46
490.409	6.46
490.533	18.46
490.658	51.46
490.782	35.46
490.906	66.46
491.031	128.46
491.155	145.46
491.28	137.46
491.404	169.46
491.528	261.46
491.653	160.46
491.777	61.46
491.902	33.46
492.026	39.46
492.15	51.46
492.275	54.46
492.399	28.46
492.524	14.46
492.648	54.46
492.772	41.46
492.897	30.46
493.021	30.46
493.145	42.46
493.27	26.46
493.394	21.46
493.518	30.46
493.643	7.46
493.767	31.46
493.891	0.46
494.016	25.46
494.14	17.46
494.264	22.46
494.389	51.46
494.513	20.46
494.637	23.46
494.762	29.46
494.886	35.46
495.01	17.46
495.134	17.46
495.259	28.46
495.383	39.46
495.507	37.46
495.632	49.46
495.756	48.46
495.88	45.46
496.004	31.46
496.129	17.46
496.253	23.46
496.377	25.46
496.501	37.46
496.626	10.46
496.75	30.46
496.874	30.46
496.998	19.46
497.123	23.46
497.247	35.46
497.371	33.46
497.495	29.46
497.62	24.46
497.744	26.46
497.868	3.46
497.992	31.46
498.116	19.46
498.241	27.46
498.365	22.46
498.489	12.46
498.613	40.46
498.737	21.46
498.862	28.46
498.986	23.46
499.11	24.46
499.234	38.46
499.358	26.46
499.482	11.46
499.607	9.46
499.731	33.46
499.855	48.46
499.979	25.46
500.103	17.46
500.227	37.46
500.351	25.46
500.476	45.46
500.6	31.46
500.724	23.46
500.848	27.46
500.972	25.46
501.096	25.46
501.22	40.46
501.344	18.46
501.469	19.46
501.593	20.46
501.717	23.46
501.841	18.46
501.965	35.46
502.089	33.46
502.213	28.46
502.337	21.46
502.461	19.46
502.585	42.46
502.709	34.46
502.834	15.46
502.958	23.46
503.082	24.46
503.206	31.46
503.33	46.46
503.454	34.46
503.578	44.46
503.702	50.46
503.826	31.46
503.95	29.46
504.074	13.46
504.198	25.46
504.322	23.46
504.446	33.46
504.57	26.46
504.694	34.46
504.818	15.46
504.942	48.46
505.066	18.46
505.19	19.46
505.314	23.46
505.438	37.46
505.562	36.46
505.686	45.46
505.81	27.46
505.934	39.46
506.058	15.46
506.182	32.46
506.306	9.46
506.43	14.46
506.554	25.46
506.678	11.46
506.802	21.46
506.926	31.46
507.05	26.46
507.174	62.46
507.298	51.46
507.422	29.46
507.546	30.46
507.67	47.46
507.794	8.46
507.918	30.46
508.042	28.46
508.165	25.46
508.289	22.46
508.413	24.46
508.537	11.46
508.661	26.46
508.785	28.46
508.909	49.46
509.033	35.46
509.157	28.46
509.281	33.46
509.405	35.46
509.528	59.46
509.652	68.46
509.776	34.46
509.9	46.46
510.024	42.46
510.148	68.46
510.272	36.46
510.396	32.46
510.519	24.46
510.643	35.46
510.767	53.46
510.891	53.46
511.015	36.46
511.139	46.46
511.263	58.46
511.386	53.46
511.51	42.46
511.634	39.46
511.758	49.46
511.882	58.46
512.006	61.46
512.129	57.46
512.253	83.46
512.377	78.46
512.501	98.46
512.625	91.46
512.748	78.46
512.872	67.46
512.996	67.46
513.12	65.46
513.244	54.46
513.367	75.46
513.491	76.46
513.615	78.46
513.739	73.46
513.862	90.46
513.986	100.46
514.11	106.46
514.234	109.46
514.358	100.46
514.481	102.46
514.605	116.46
514.729	123.46
514.853	122.46
514.976	102.46
515.1	91.46
515.224	107.46
515.348	93.46
515.471	73.46
515.595	102.46
515.719	123.46
515.842	212.46
515.966	264.46
516.09	288.46
516.214	289.46
516.337	330.46
516.461	242.46
516.585	103.46
516.708	42.46
516.832	21.46
516.956	10.46
517.08	20.46
517.203	14.46
517.327	27.46
517.451	17.46
517.574	51.46
517.698	-2.54
517.822	13.46
517.945	33.46
518.069	39.46
518.193	47.46
518.316	44.46
518.44	25.46
518.564	17.46
518.687	10.46
518.811	29.46
518.935	46.46
519.058	23.46
519.182	19.46
519.306	25.46
519.429	21.46
519.553	50.46
519.676	12.46
519.8	21.46
519.924	19.46
520.047	17.46
520.171	7.46
520.294	22.46
520.418	34.46
520.542	33.46
520.665	33.46
520.789	21.46
520.913	17.46
521.036	13.46
521.16	6.46
521.283	32.46
521.407	27.46
521.53	17.46
521.654	-1.54
521.778	28.46
521.901	22.46
522.025	23.46
522.148	12.46
522.272	18.46
522.395	25.46
522.519	28.46
522.643	17.46
522.766	12.46
522.89	12.46
523.013	41.46
523.137	12.46
523.26	18.46
523.384	34.46
523.507	21.46
523.631	23.46
523.754	30.46
523.878	21.46
524.002	35.46
524.125	18.46
524.249	18.46
524.372	15.46
524.496	14.46
524.619	24.46
524.743	16.46
524.866	15.46
524.99	14.46
525.113	14.46
525.237	36.46
525.36	16.46
525.484	32.46
525.607	14.46
525.731	-1.54
525.854	19.46
525.978	33.46
526.101	22.46
526.224	18.46
526.348	18.46
526.471	28.46
526.595	31.46
526.718	17.46
526.842	-1.54
526.965	30.46
527.089	16.46
527.212	18.46
527.336	21.46
527.459	18.46
527.582	20.46
527.706	38.46
527.829	37.46
527.953	22.46
528.076	9.46
528.2	8.46
528.323	29.46
528.446	43.46
528.57	26.46
528.693	46.46
528.817	33.46
528.94	31.46
529.064	60.46
529.187	18.46
529.31	18.46
529.434	17.46
529.557	11.46
529.68	28.46
529.804	23.46
529.927	17.46
530.051	16.46
530.174	7.46
530.297	38.46
530.421	25.46
530.544	23.46
530.668	39.46
530.791	24.46
530.914	21.46
531.038	26.46
531.161	31.46
531.284	30.46
531.408	27.46
531.531	21.46
531.654	21.46
531.778	13.46
531.901	6.46
532.024	15.46
532.148	19.46
532.271	21.46
532.394	22.46
532.518	42.46
532.641	13.46
532.764	11.46
532.888	23.46
533.011	0.46
533.134	6.46
533.258	37.46
533.381	4.46
533.504	19.46
533.628	17.46
533.751	44.46
533.874	11.46
533.997	18.46
534.121	21.46
534.244	32.46
534.367	20.46
534.491	25.46
534.614	25.46
534.737	28.46
534.86	26.46
534.984	30.46
535.107	8.46
535.23	22.46
535.354	16.46
535.477	9.46
535.6	14.46
535.723	40.46
535.847	25.46
535.97	11.46
536.093	15.46
536.216	4.46
536.34	24.46
536.463	16.46
536.586	38.46
536.709	24.46
536.833	21.46
536.956	25.46
537.079	30.46
537.202	39.46
537.325	27.46
537.449	-2.54
537.572	21.46
537.695	25.46
537.818	9.46
537.941	19.46
538.065	34.46
538.188	21.46
538.311	35.46
538.434	30.46
538.558	37.46
538.681	21.46
538.804	24.46
538.927	13.46
539.05	25.46
539.173	28.46
539.297	28.46
539.42	22.46
539.543	31.46
539.666	26.46
539.789	26.46
539.913	32.46
540.036	39.46
540.159	35.46
540.282	29.46
540.405	21.46
540.528	10.46
540.651	31.46
540.775	18.46
540.898	43.46
541.021	36.46
541.144	30.46
541.267	35.46
541.39	29.46
541.513	30.46
541.637	36.46
541.76	42.46
541.883	37.46
542.006	43.46
542.129	40.46
542.252	47.46
542.375	43.46
542.498	31.46
542.622	69.46
542.745	60.46
542.868	51.46
542.991	57.46
543.114	54.46
543.237	58.46
543.36	63.46
543.483	59.46
543.606	78.46
543.73	78.46
543.853	90.46
543.976	91.46
544.099	110.46
544.222	124.46
544.345	139.46
544.468	159.46
544.591	231.46
544.714	262.46
544.837	342.46
544.96	451.46
545.083	651.46
545.206	1099.46
545.329	2464.46
545.453	11017.46
545.576	15273.46
545.699	15688.46
545.822	15688.46
545.945	15688.46
546.068	15688.46
546.191	15688.46
546.314	15688.46
546.437	15688.46
546.56	15688.46
546.683	15688.46
546.806	15688.46
546.929	15688.46
547.052	15688.46
547.175	15688.46
547.298	15688.46
547.421	15688.46
547.544	15688.46
547.667	3513.46
547.79	2372.46
547.913	1026.46
548.036	868.46
548.159	639.46
548.282	618.46
548.405	488.46
548.528	493.46
548.651	405.46
548.774	410.46
548.897	350.46
549.02	366.46
549.143	305.46
549.266	286.46
549.389	269.46
549.512	259.46
549.635	249.46
549.758	240.46
549.881	208.46
550.004	227.46
550.127	204.46
550.25	206.46
550.373	166.46
550.496	193.46
550.619	167.46
550.742	161.46
550.865	150.46
550.988	165.46
551.111	178.46
551.234	169.46
551.356	134.46
551.479	135.46
551.602	131.46
551.725	149.46
551.848	149.46
551.971	159.46
552.094	138.46
552.217	125.46
552.34	121.46
552.463	108.46
552.586	124.46
552.709	103.46
552.832	106.46
552.955	114.46
553.077	106.46
553.2	111.46
553.323	87.46
553.446	113.46
553.569	90.46
553.692	109.46
553.815	104.46
553.938	92.46
554.061	109.46
554.184	96.46
554.306	94.46
554.429	93.46
554.552	90.46
554.675	85.46
554.798	75.46
554.921	99.46
555.044	73.46
555.167	80.46
555.29	82.46
555.412	81.46
555.535	64.46
555.658	78.46
555.781	94.46
555.904	90.46
556.027	86.46
556.15	72.46
556.272	64.46
556.395	92.46
556.518	71.46
556.641	61.46
556.764	76.46
556.887	85.46
557.01	63.46
557.132	71.46
557.255	66.46
557.378	92.46
557.501	77.46
557.624	80.46
557.747	68.46
557.869	67.46
557.992	84.46
558.115	116.46
558.238	82.46
558.361	95.46
558.483	93.46
558.606	81.46
558.729	65.46
558.852	67.46
558.975	78.46
559.098	67.46
559.22	68.46
559.343	64.46
559.466	67.46
559.589	50.46
559.712	49.46
559.834	53.46
559.957	42.46
560.08	52.46
560.203	66.46
560.325	59.46
560.448	67.46
560.571	54.46
560.694	71.46
560.817	79.46
560.939	73.46
561.062	62.46
561.185	95.46
561.308	71.46
561.43	50.46
561.553	63.46
561.676	59.46
561.799	52.46
561.921	64.46
562.044	48.46
562.167	48.46
562.29	74.46
562.413	77.46
562.535	63.46
562.658	45.46
562.781	55.46
562.903	75.46
563.026	97.46
563.149	140.46
563.272	137.46
563.394	105.46
563.517	103.46
563.64	83.46
563.763	54.46
563.885	55.46
564.008	57.46
564.131	57.46
564.254	33.46
564.376	39.46
564.499	36.46
564.622	44.46
564.744	51.46
564.867	49.46
564.99	34.46
565.113	34.46
565.235	38.46
565.358	34.46
565.481	35.46
565.603	33.46
565.726	42.46
565.849	52.46
565.971	45.46
566.094	41.46
566.217	42.46
566.34	66.46
566.462	51.46
566.585	63.46
566.708	73.46
566.83	61.46
566.953	55.46
567.076	61.46
567.198	33.46
567.321	41.46
567.444	53.46
567.566	53.46
567.689	41.46
567.812	24.46
567.934	35.46
568.057	35.46
568.18	29.46
568.302	35.46
568.425	28.46
568.548	37.46
568.67	33.46
568.793	16.46
568.916	32.46
569.038	40.46
569.161	38.46
569.283	35.46
569.406	23.46
569.529	21.46
569.651	18.46
569.774	15.46
569.897	29.46
570.019	57.46
570.142	39.46
570.265	44.46
570.387	41.46
570.51	36.46
570.632	51.46
570.755	27.46
570.878	25.46
571	43.46
571.123	31.46
571.246	45.46
571.368	22.46
571.491	43.46
571.613	31.46
571.736	25.46
571.859	26.46
571.981	34.46
572.104	29.46
572.226	30.46
572.349	28.46
572.472	25.46
572.594	32.46
572.717	40.46
572.839	34.46
572.962	30.46
573.085	34.46
573.207	40.46
573.33	41.46
573.452	21.46
573.575	34.46
573.697	45.46
573.82	30.46
573.943	11.46
574.065	30.46
574.188	45.46
574.31	54.46
574.433	39.46
574.555	45.46
574.678	41.46
574.801	29.46
574.923	44.46
575.046	55.46
575.168	53.46
575.291	21.46
575.413	37.46
575.536	26.46
575.659	47.46
575.781	49.46
575.904	51.46
576.026	69.46
576.149	88.46
576.271	150.46
576.394	228.46
576.516	531.46
576.639	3660.46
576.761	10098.46
576.884	8818.46
577.007	8736.46
577.129	8035.46
577.252	3712.46
577.374	1299.46
577.497	550.46
577.619	271.46
577.742	174.46
577.864	156.46
577.987	140.46
578.109	129.46
578.232	126.46
578.354	178.46
578.477	185.46
578.599	378.46
578.722	2007.46
578.844	9121.46
578.967	9771.46
579.089	8757.46
579.212	9066.46
579.334	5216.46
579.457	1937.46
579.579	714.46
579.702	317.46
579.824	219.46
579.947	139.46
580.069	114.46
580.192	83.46
580.314	94.46
580.437	90.46
580.559	97.46
580.682	72.46
580.804	71.46
580.927	78.46
581.049	83.46
581.172	53.46
581.294	64.46
581.417	51.46
581.539	62.46
581.662	53.46
581.784	41.46
581.907	47.46
582.029	62.46
582.152	40.46
582.274	46.46
582.396	33.46
582.519	35.46
582.641	35.46
582.764	25.46
582.886	53.46
583.009	40.46
583.131	39.46
583.254	42.46
583.376	60.46
583.499	57.46
583.621	40.46
583.743	48.46
583.866	34.46
583.988	38.46
584.111	47.46
584.233	46.46
584.356	49.46
584.478	44.46
584.601	43.46
584.723	39.46
584.845	40.46
584.968	23.46
585.09	21.46
585.213	40.46
585.335	28.46
585.458	37.46
585.58	34.46
585.702	40.46
585.825	47.46
585.947	20.46
586.07	27.46
586.192	29.46
586.315	36.46
586.437	31.46
586.559	29.46
586.682	2.46
586.804	39.46
586.927	38.46
587.049	27.46
587.171	20.46
587.294	53.46
587.416	73.46
587.539	35.46
587.661	25.46
587.783	23.46
587.906	37.46
588.028	35.46
588.151	32.46
588.273	28.46
588.395	25.46
588.518	34.46
588.64	30.46
588.763	45.46
588.885	39.46
589.007	45.46
589.13	20.46
589.252	19.46
589.375	34.46
589.497	38.46
589.619	32.46
589.742	29.46
589.864	28.46
589.986	27.46
590.109	30.46
590.231	35.46
590.354	49.46
590.476	18.46
590.598	29.46
590.721	32.46
590.843	23.46
590.965	30.46
591.088	45.46
591.21	35.46
591.332	16.46
591.455	9.46
591.577	22.46
591.7	17.46
591.822	36.46
591.944	35.46
592.067	37.46
592.189	30.46
592.311	33.46
592.434	26.46
592.556	31.46
592.678	42.46
592.801	19.46
592.923	25.46
593.045	15.46
593.168	47.46
593.29	34.46
593.412	43.46
593.535	29.46
593.657	21.46
593.779	44.46
593.902	36.46
594.024	26.46
594.146	39.46
594.269	14.46
594.391	14.46
594.513	14.46
594.636	16.46
594.758	17.46
594.88	47.46
595.003	34.46
595.125	33.46
595.247	35.46
595.37	41.46
595.492	26.46
595.614	61.46
595.737	30.46
595.859	32.46
595.981	29.46
596.104	30.46
596.226	20.46
596.348	28.46
596.471	13.46
596.593	32.46
596.715	12.46
596.838	20.46
596.96	21.46
597.082	30.46
597.204	35.46
597.327	25.46
597.449	21.46
597.571	14.46
597.694	43.46
597.816	40.46
597.938	32.46
598.061	26.46
598.183	25.46
598.305	41.46
598.427	30.46
598.55	18.46
598.672	28.46
598.794	41.46
598.917	22.46
599.039	47.46
599.161	43.46
599.283	34.46
599.406	27.46
599.528	39.46
599.65	49.46
599.773	30.46
599.895	52.46
600.017	57.46
600.139	23.46
600.262	16.46
600.384	35.46
600.506	23.46
600.628	42.46
600.751	30.46
600.873	15.46
600.995	14.46
601.118	35.46
601.24	31.46
601.362	45.46
601.484	37.46
601.607	22.46
601.729	31.46
601.851	36.46
601.973	11.46
602.096	48.46
602.218	24.46
602.34	19.46
602.462	44.46
602.585	26.46
602.707	24.46
602.829	31.46
602.951	37.46
603.074	14.46
603.196	25.46
603.318	7.46
603.44	35.46
603.563	23.46
603.685	20.46
603.807	35.46
603.929	31.46
604.052	38.46
604.174	43.46
604.296	35.46
604.418	42.46
604.541	40.46
604.663	37.46
604.785	32.46
604.907	32.46
605.03	17.46
605.152	70.46
605.274	30.46
605.396	15.46
605.519	14.46
605.641	15.46
605.763	27.46
605.885	29.46
606.008	41.46
606.13	42.46
606.252	34.46
606.374	19.46
606.496	13.46
606.619	16.46
606.741	10.46
606.863	35.46
606.985	43.46
607.108	35.46
607.23	28.46
607.352	22.46
607.474	35.46
607.596	36.46
607.719	24.46
607.841	28.46
607.963	28.46
608.085	25.46
608.207	32.46
608.33	31.46
608.452	38.46
608.574	23.46
608.696	25.46
608.819	19.46
608.941	27.46
609.063	22.46
609.185	20.46
609.307	43.46
609.43	43.46
609.552	34.46
609.674	13.46
609.796	19.46
609.918	42.46
610.041	27.46
610.163	28.46
610.285	30.46
610.407	42.46
610.529	-2.54
610.652	16.46
610.774	25.46
610.896	22.46
611.018	29.46
611.14	23.46
611.263	20.46
611.385	21.46
611.507	33.46
611.629	34.46
611.751	31.46
611.873	53.46
611.996	30.46
612.118	41.46
612.24	37.46
612.362	36.46
612.484	53.46
612.607	48.46
612.729	47.46
612.851	43.46
612.973	21.46
613.095	0.46
613.218	5.46
613.34	30.46
613.462	20.46
613.584	24.46
613.706	23.46
613.828	39.46
613.951	14.46
614.073	15.46
614.195	-1.54
614.317	19.46
614.439	39.46
614.561	37.46
614.684	37.46
614.806	24.46
614.928	30.46
615.05	35.46
615.172	33.46
615.294	30.46
615.417	27.46
615.539	15.46
615.661	34.46
615.783	41.46
615.905	11.46
616.027	27.46
616.15	44.46
616.272	29.46
616.394	31.46
616.516	26.46
616.638	13.46
616.76	27.46
616.883	26.46
617.005	21.46
617.127	25.46
617.249	35.46
617.371	32.46
617.493	39.46
617.615	41.46
617.738	35.46
617.86	34.46
617.982	34.46
618.104	21.46
618.226	25.46
618.348	14.46
618.471	38.46
618.593	25.46
618.715	19.46
618.837	36.46
618.959	41.46
619.081	46.46
619.203	27.46
619.326	12.46
619.448	31.46
619.57	41.46
619.692	38.46
619.814	39.46
619.936	32.46
620.058	43.46
620.181	38.46
620.303	9.46
620.425	23.46
620.547	13.46
620.669	18.46
620.791	16.46
620.913	27.46
621.036	19.46
621.158	37.46
621.28	28.46
621.402	10.46
621.524	23.46
621.646	36.46
621.768	5.46
621.891	7.46
622.013	31.46
622.135	35.46
622.257	16.46
622.379	5.46
622.501	11.46
622.623	31.46
622.745	42.46
622.868	36.46
622.99	33.46
623.112	30.46
623.234	13.46
623.356	23.46
623.478	15.46
623.6	35.46
623.722	10.46
623.845	38.46
623.967	8.46
624.089	30.46
624.211	35.46
624.333	29.46
624.455	26.46
624.577	1.46
624.699	35.46
624.822	6.46
624.944	17.46
625.066	31.46
625.188	0.46
625.31	21.46
625.432	35.46
625.554	21.46
625.676	50.46
625.799	38.46
625.921	28.46
626.043	23.46
626.165	19.46
626.287	9.46
626.409	22.46
626.531	18.46
626.653	25.46
626.775	34.46
626.898	33.46
627.02	34.46
627.142	56.46
627.264	45.46
627.386	23.46
627.508	11.46
627.63	27.46
627.752	36.46
627.874	33.46
627.997	45.46
628.119	16.46
628.241	27.46
628.363	43.46
628.485	17.46
628.607	29.46
628.729	28.46
628.851	4.46
628.973	25.46
629.096	10.46
629.218	23.46
629.34	29.46
629.462	17.46
629.584	12.46
629.706	34.46
629.828	35.46
629.95	30.46
630.072	7.46
630.195	13.46
630.317	16.46
630.439	9.46
630.561	13.46
630.683	-4.54
630.805	31.46
630.927	36.46
631.049	14.46
631.171	10.46
631.293	16.46
631.416	17.46
631.538	12.46
631.66	14.46
631.782	29.46
631.904	37.46
632.026	22.46
632.148	25.46
632.27	16.46
632.392	11.46
632.514	36.46
632.637	31.46
632.759	10.46
632.881	25.46
633.003	21.46
633.125	10.46
633.247	19.46
633.369	21.46
633.491	13.46
633.613	32.46
633.735	13.46
633.858	32.46
633.98	17.46
634.102	17.46
634.224	11.46
634.346	16.46
634.468	30.46
634.59	29.46
634.712	37.46
634.834	20.46
634.956	23.46
635.078	5.46
635.201	1.46
635.323	8.46
635.445	11.46
635.567	11.46
635.689	31.46
635.811	20.46
635.933	17.46
636.055	27.46
636.177	6.46
636.299	46.46
636.421	4.46
636.544	5.46
636.666	27.46
636.788	9.46
636.91	21.46
637.032	19.46
637.154	34.46
637.276	25.46
637.398	22.46
637.52	36.46
637.642	38.46
637.764	25.46
637.887	22.46
638.009	8.46
638.131	26.46
638.253	20.46
638.375	34.46
638.497	34.46
638.619	13.46
638.741	27.46
638.863	14.46
638.985	17.46
639.107	19.46
639.23	19.46
639.352	18.46
639.474	15.46
639.596	27.46
639.718	32.46
639.84	21.46
639.962	15.46
640.084	23.46
640.206	23.46
640.328	34.46
640.45	21.46
640.573	21.46
640.695	18.46
640.817	40.46
640.939	29.46
641.061	7.46
641.183	-6.54
641.305	6.46
641.427	22.46
641.549	18.46
641.671	37.46
641.793	16.46
641.915	29.46
642.038	5.46
642.16	13.46
642.282	-1.54
642.404	22.46
642.526	14.46
642.648	26.46
642.77	25.46
642.892	26.46
643.014	24.46
643.136	5.46
643.258	20.46
643.381	37.46
643.503	19.46
643.625	24.46
643.747	21.46
643.869	19.46
643.991	22.46
644.113	22.46
644.235	19.46
644.357	20.46
644.479	34.46
644.601	9.46
644.723	25.46
644.846	21.46
644.968	34.46
645.09	15.46
645.212	-1.54
645.334	21.46
645.456	18.46
645.578	20.46
645.7	13.46
645.822	33.46
645.944	35.46
646.066	12.46
646.188	15.46
646.311	31.46
646.433	17.46
646.555	33.46
646.677	13.46
646.799	9.46
646.921	5.46
647.043	37.46
647.165	20.46
647.287	26.46
647.409	15.46
647.531	38.46
647.654	10.46
647.776	38.46
647.898	27.46
648.02	13.46
648.142	14.46
648.264	18.46
648.386	6.46
648.508	-1.54
648.63	14.46
648.752	17.46
648.874	11.46
648.997	22.46
649.119	29.46
649.241	23.46
649.363	32.46
649.485	37.46
649.607	21.46
649.729	19.46
649.851	20.46
649.973	23.46
650.095	18.46
650.217	17.46
650.34	5.46
650.462	19.46
650.584	11.46
650.706	10.46
650.828	23.46
650.95	10.46
651.072	38.46
651.194	14.46
651.316	21.46
651.438	36.46
651.56	10.46
651.683	15.46
651.805	9.46
651.927	25.46
652.049	24.46
652.171	10.46
652.293	30.46
652.415	17.46
652.537	-0.54
652.659	1.46
652.781	31.46
652.903	37.46
653.026	38.46
653.148	18.46
653.27	18.46
653.392	7.46
653.514	17.46
653.636	34.46
653.758	33.46
653.88	7.46
654.002	20.46
654.124	15.46
654.247	12.46
654.369	17.46
654.491	21.46
654.613	19.46
654.735	12.46
654.857	23.46
654.979	-2.54
655.101	2.46
655.223	27.46
655.345	21.46
655.468	9.46
655.59	20.46
655.712	13.46
655.834	21.46
655.956	27.46
656.078	14.46
656.2	10.46
656.322	9.46
656.444	-11.54
656.566	28.46
656.689	22.46
656.811	12.46
656.933	35.46
657.055	14.46
657.177	17.46
657.299	-2.54
657.421	7.46
657.543	31.46
657.665	25.46
657.787	9.46
657.91	12.46
658.032	24.46
658.154	13.46
658.276	10.46
658.398	10.46
658.52	23.46
658.642	8.46
658.764	17.46
658.886	-6.54
659.009	-1.54
659.131	34.46
659.253	26.46
659.375	26.46
659.497	26.46
659.619	26.46
659.741	9.46
659.863	20.46
659.985	7.46
660.108	24.46
660.23	-2.54
660.352	19.46
660.474	9.46
660.596	20.46
660.718	24.46
660.84	10.46
660.962	16.46
661.084	-0.54
661.207	-0.54
661.329	23.46
661.451	14.46
661.573	34.46
661.695	21.46
661.817	29.46
661.939	27.46
662.061	49.46
662.184	22.46
662.306	19.46
662.428	26.46
662.55	35.46
662.672	18.46
662.794	19.46
662.916	10.46
663.038	5.46
663.161	20.46
663.283	36.46
663.405	40.46
663.527	14.46
663.649	21.46
663.771	16.46
663.893	14.46
664.015	13.46
664.138	4.46
664.26	11.46
664.382	25.46
664.504	20.46
664.626	2.46
664.748	8.46
664.87	13.46
664.992	28.46
665.115	14.46
665.237	10.46
665.359	6.46
665.481	5.46
665.603	9.46
665.725	20.46
665.847	7.46
665.97	13.46
666.092	37.46
666.214	15.46
666.336	11.46
666.458	2.46
666.58	30.46
666.702	5.46
666.825	15.46
666.947	-0.54
667.069	17.46
667.191	25.46
667.313	28.46
667.435	4.46
667.557	7.46
667.68	-0.54
667.802	10.46
667.924	-0.54
668.046	23.46
668.168	24.46
668.29	36.46
668.412	14.46
668.535	31.46
668.657	5.46
668.779	10.46
668.901	23.46
669.023	37.46
669.145	5.46
669.267	33.46
669.39	14.46
669.512	25.46
669.634	22.46
669.756	10.46
669.878	15.46
670	24.46
670.123	18.46
670.245	43.46
670.367	34.46
670.489	19.46
670.611	18.46
670.733	13.46
670.856	1.46
670.978	26.46
671.1	32.46
671.222	23.46
671.344	11.46
671.466	-10.54
671.589	-0.54
671.711	6.46
671.833	20.46
671.955	15.46
672.077	-2.54
672.199	17.46
672.322	37.46
672.444	14.46
672.566	32.46
672.688	6.46
672.81	13.46
672.932	42.46
673.055	10.46
673.177	0.46
673.299	19.46
673.421	17.46
673.543	12.46
673.665	28.46
673.788	27.46
673.91	15.46
674.032	4.46
674.154	25.46
674.276	33.46
674.399	25.46
674.521	13.46
674.643	26.46
674.765	27.46
674.887	21.46
675.009	5.46
675.132	-10.54
675.254	16.46
675.376	12.46
675.498	14.46
675.62	37.46
675.743	20.46
675.865	32.46
675.987	6.46
676.109	9.46
676.231	18.46
676.354	43.46
676.476	6.46
676.598	21.46
676.72	38.46
676.842	39.46
676.965	9.46
677.087	14.46
677.209	34.46
677.331	22.46
677.453	37.46
677.576	-0.54
677.698	18.46
677.82	13.46
677.942	5.46
678.064	11.46
678.187	22.46
678.309	0.46
678.431	16.46
678.553	1.46
678.675	26.46
678.798	47.46
678.92	13.46
679.042	-3.54
679.164	14.46
679.286	36.46
679.409	15.46
679.531	-6.54
679.653	-1.54
679.775	-0.54
679.898	2.46
680.02	9.46
680.142	25.46
680.264	25.46
680.386	0.46
680.509	19.46
680.631	18.46
680.753	9.46
680.875	3.46
680.998	31.46
681.12	7.46
681.242	7.46
681.364	11.46
681.486	13.46
681.609	5.46
681.731	3.46
681.853	-5.54
681.975	-0.54
682.098	24.46
682.22	27.46
682.342	15.46
682.464	22.46
682.587	9.46
682.709	1.46
682.831	-0.54
682.953	6.46
683.076	-0.54
683.198	21.46
683.32	15.46
683.442	9.46
683.565	22.46
683.687	2.46
683.809	18.46
683.931	1.46
684.054	28.46
684.176	15.46
684.298	23.46
684.42	17.46
684.543	14.46
684.665	21.46
684.787	10.46
684.909	1.46
685.032	34.46
685.154	-6.54
685.276	17.46
685.398	-2.54
685.521	-11.54
685.643	5.46
685.765	21.46
685.887	30.46
686.01	16.46
686.132	5.46
686.254	13.46
686.377	22.46
686.499	5.46
686.621	15.46
686.743	9.46
686.866	-2.54
686.988	31.46
687.11	18.46
687.232	27.46
687.355	1.46
687.477	15.46
687.599	17.46
687.722	15.46
687.844	19.46
687.966	5.46
688.088	22.46
688.211	35.46
688.333	31.46
688.455	21.46
688.578	29.46
688.7	13.46
688.822	16.46
688.944	7.46
689.067	45.46
689.189	8.46
689.311	6.46
689.434	5.46
689.556	33.46
689.678	24.46
689.801	5.46
689.923	11.46
690.045	28.46
690.167	22.46
690.29	25.46
690.412	14.46
690.534	21.46
690.657	17.46
690.779	13.46
690.901	28.46
691.024	6.46
691.146	9.46
691.268	-1.54
691.391	34.46
691.513	35.46
691.635	28.46
691.758	39.46
691.88	20.46
692.002	14.46
692.125	6.46
692.247	23.46
692.369	19.46
692.492	0.46
692.614	17.46
692.736	13.46
692.859	16.46
692.981	11.46
693.103	19.46
693.226	21.46
693.348	42.46
693.47	18.46
693.593	18.46
693.715	42.46
693.837	35.46
693.96	31.46
694.082	6.46
694.204	10.46
694.327	22.46
694.449	12.46
694.571	17.46
694.694	25.46
694.816	14.46
694.938	9.46
695.061	14.46
695.183	18.46
695.305	13.46
695.428	17.46
695.55	6.46
695.672	13.46
695.795	36.46
695.917	45.46
696.04	13.46
696.162	19.46
696.284	17.46
696.407	19.46
696.529	17.46
696.651	18.46
696.774	12.46
696.896	31.46
697.019	12.46
697.141	32.46
697.263	11.46
697.386	4.46
697.508	3.46
697.63	20.46
697.753	33.46
697.875	19.46
697.998	17.46
698.12	21.46
698.242	9.46
698.365	-4.54
698.487	29.46
698.61	22.46
698.732	27.46
698.854	25.46
698.977	3.46
699.099	31.46
699.221	18.46
699.344	9.46
699.466	17.46
699.589	26.46
699.711	6.46
699.834	10.46
699.956	20.46
700.078	13.46
700.201	7.46
700.323	27.46
700.446	25.46
700.568	27.46
700.69	6.46
700.813	20.46
700.935	17.46
701.058	29.46
701.18	11.46
701.302	3.46
701.425	1.46
701.547	24.46
701.67	11.46
701.792	13.46
701.915	3.46
702.037	2.46
702.159	9.46
702.282	14.46
702.404	22.46
702.527	16.46
702.649	26.46
702.772	29.46
702.894	16.46
703.017	22.46
703.139	39.46
703.261	19.46
703.384	11.46
703.506	22.46
703.629	9.46
703.751	23.46
703.874	18.46
703.996	-12.54
704.119	-9.54
704.241	10.46
704.364	7.46
704.486	16.46
704.608	5.46
704.731	16.46
704.853	21.46
704.976	-1.54
705.098	14.46
705.221	3.46
705.343	20.46
705.466	26.46
705.588	23.46
705.711	5.46
705.833	18.46
705.956	18.46
706.078	24.46
706.201	25.46
706.323	15.46
706.446	13.46
