Data from LowRes_mercury_15_20_11_07_2024_HR4C61881__72__15-23-39-470.txt Node

Date: Thu Nov 07 15:23:39 EST 2024
User: crc00042
Spectrometer: HR4C6188
Trigger mode: 4
Integration Time (sec): 1.000000E-1
Scans to average: 1
Electric dark correction enabled: true
Nonlinearity correction enabled: false
Boxcar width: 0
XAxis mode: Wavelengths
Number of Pixels in Spectrum: 3648
>>>>>Begin Spectral Data<<<<<
245.66	-60.54
245.797	-60.54
245.934	-60.54
246.071	-56.54
246.208	18.46
246.344	-2.54
246.481	-8.54
246.618	0.46
246.755	14.46
246.892	-24.54
247.029	-12.54
247.165	-4.54
247.302	14.46
247.439	6.46
247.576	-5.54
247.713	-0.54
247.849	29.46
247.986	-6.54
248.123	-11.54
248.26	-12.54
248.396	14.46
248.533	17.46
248.67	12.46
248.806	7.46
248.943	5.46
249.08	0.46
249.216	24.46
249.353	1.46
249.49	6.46
249.626	7.46
249.763	17.46
249.9	-1.54
250.036	7.46
250.173	15.46
250.309	8.46
250.446	-6.54
250.582	-11.54
250.719	-17.54
250.856	-4.54
250.992	-1.54
251.129	-11.54
251.265	-8.54
251.402	5.46
251.538	8.46
251.675	-6.54
251.811	20.46
251.948	12.46
252.084	6.46
252.221	-11.54
252.357	4.46
252.493	15.46
252.63	11.46
252.766	21.46
252.903	-13.54
253.039	-5.54
253.175	0.46
253.312	16.46
253.448	-4.54
253.585	-0.54
253.721	10.46
253.857	0.46
253.994	6.46
254.13	-1.54
254.266	-0.54
254.403	10.46
254.539	-14.54
254.675	7.46
254.811	13.46
254.948	12.46
255.084	-24.54
255.22	-13.54
255.356	-5.54
255.493	16.46
255.629	9.46
255.765	20.46
255.901	18.46
256.037	11.46
256.174	16.46
256.31	-1.54
256.446	-12.54
256.582	6.46
256.718	36.46
256.854	27.46
256.991	7.46
257.127	15.46
257.263	3.46
257.399	4.46
257.535	-7.54
257.671	-13.54
257.807	-14.54
257.943	-2.54
258.079	-8.54
258.215	2.46
258.351	43.46
258.487	24.46
258.623	16.46
258.759	-0.54
258.895	-5.54
259.031	14.46
259.167	-5.54
259.303	2.46
259.439	14.46
259.575	-1.54
259.711	15.46
259.847	-15.54
259.983	4.46
260.119	8.46
260.255	-15.54
260.391	6.46
260.527	6.46
260.663	13.46
260.799	11.46
260.934	-5.54
261.07	-3.54
261.206	-12.54
261.342	-14.54
261.478	19.46
261.614	8.46
261.749	2.46
261.885	4.46
262.021	4.46
262.157	21.46
262.293	11.46
262.428	-3.54
262.564	-5.54
262.7	13.46
262.836	-0.54
262.971	25.46
263.107	8.46
263.243	11.46
263.378	0.46
263.514	-13.54
263.65	-8.54
263.785	-18.54
263.921	-13.54
264.057	13.46
264.192	6.46
264.328	3.46
264.464	-7.54
264.599	30.46
264.735	26.46
264.871	-19.54
265.006	-4.54
265.142	8.46
265.277	-0.54
265.413	24.46
265.548	12.46
265.684	15.46
265.819	7.46
265.955	9.46
266.091	-13.54
266.226	9.46
266.362	4.46
266.497	3.46
266.633	-6.54
266.768	-14.54
266.903	4.46
267.039	24.46
267.174	26.46
267.31	12.46
267.445	3.46
267.581	-0.54
267.716	19.46
267.851	23.46
267.987	3.46
268.122	2.46
268.258	-11.54
268.393	-14.54
268.528	-7.54
268.664	1.46
268.799	-9.54
268.934	22.46
269.07	-7.54
269.205	4.46
269.34	24.46
269.476	20.46
269.611	0.46
269.746	23.46
269.881	-7.54
270.017	28.46
270.152	16.46
270.287	25.46
270.422	11.46
270.558	-15.54
270.693	11.46
270.828	7.46
270.963	-3.54
271.098	-2.54
271.234	2.46
271.369	21.46
271.504	2.46
271.639	0.46
271.774	4.46
271.909	-0.54
272.045	-12.54
272.18	4.46
272.315	17.46
272.45	11.46
272.585	-4.54
272.72	19.46
272.855	3.46
272.99	18.46
273.125	1.46
273.26	-13.54
273.395	-11.54
273.53	-1.54
273.665	19.46
273.8	3.46
273.935	7.46
274.07	11.46
274.205	15.46
274.34	2.46
274.475	9.46
274.61	33.46
274.745	-9.54
274.88	32.46
275.015	-0.54
275.15	10.46
275.285	6.46
275.42	20.46
275.555	25.46
275.69	9.46
275.825	-1.54
275.959	19.46
276.094	-1.54
276.229	-0.54
276.364	-5.54
276.499	2.46
276.634	5.46
276.768	6.46
276.903	11.46
277.038	33.46
277.173	0.46
277.308	6.46
277.442	-8.54
277.577	-5.54
277.712	-2.54
277.847	-11.54
277.981	4.46
278.116	-5.54
278.251	10.46
278.386	-20.54
278.52	-3.54
278.655	-0.54
278.79	10.46
278.924	15.46
279.059	9.46
279.194	4.46
279.328	37.46
279.463	6.46
279.598	11.46
279.732	4.46
279.867	3.46
280.001	2.46
280.136	1.46
280.271	4.46
280.405	-6.54
280.54	1.46
280.674	7.46
280.809	21.46
280.943	21.46
281.078	-1.54
281.213	24.46
281.347	8.46
281.482	-11.54
281.616	1.46
281.751	17.46
281.885	-4.54
282.02	11.46
282.154	15.46
282.288	-0.54
282.423	-18.54
282.557	-15.54
282.692	6.46
282.826	23.46
282.961	12.46
283.095	2.46
283.229	-2.54
283.364	-21.54
283.498	-4.54
283.633	23.46
283.767	24.46
283.901	18.46
284.036	4.46
284.17	-3.54
284.304	-3.54
284.439	1.46
284.573	5.46
284.707	13.46
284.842	20.46
284.976	11.46
285.11	2.46
285.244	15.46
285.379	16.46
285.513	-0.54
285.647	10.46
285.781	2.46
285.916	15.46
286.05	0.46
286.184	7.46
286.318	18.46
286.453	3.46
286.587	-4.54
286.721	-9.54
286.855	2.46
286.989	7.46
287.123	8.46
287.258	-7.54
287.392	3.46
287.526	19.46
287.66	17.46
287.794	12.46
287.928	21.46
288.062	23.46
288.196	-21.54
288.33	14.46
288.464	27.46
288.598	20.46
288.733	25.46
288.867	17.46
289.001	-6.54
289.135	6.46
289.269	4.46
289.403	27.46
289.537	14.46
289.671	-8.54
289.805	-17.54
289.939	3.46
290.073	3.46
290.207	24.46
290.34	10.46
290.474	29.46
290.608	22.46
290.742	-2.54
290.876	-13.54
291.01	16.46
291.144	28.46
291.278	11.46
291.412	0.46
291.546	3.46
291.679	8.46
291.813	8.46
291.947	-2.54
292.081	-9.54
292.215	8.46
292.349	23.46
292.482	9.46
292.616	3.46
292.75	17.46
292.884	20.46
293.018	21.46
293.151	1.46
293.285	3.46
293.419	0.46
293.553	-7.54
293.686	1.46
293.82	7.46
293.954	25.46
294.088	10.46
294.221	4.46
294.355	0.46
294.489	12.46
294.622	6.46
294.756	5.46
294.89	5.46
295.023	-3.54
295.157	13.46
295.291	14.46
295.424	3.46
295.558	2.46
295.691	0.46
295.825	-14.54
295.959	22.46
296.092	-5.54
296.226	5.46
296.359	1.46
296.493	11.46
296.627	5.46
296.76	10.46
296.894	24.46
297.027	13.46
297.161	-1.54
297.294	-7.54
297.428	-1.54
297.561	22.46
297.695	-9.54
297.828	10.46
297.962	-0.54
298.095	-11.54
298.229	11.46
298.362	-3.54
298.495	3.46
298.629	-5.54
298.762	-5.54
298.896	2.46
299.029	-15.54
299.162	15.46
299.296	4.46
299.429	-2.54
299.563	10.46
299.696	0.46
299.829	0.46
299.963	21.46
300.096	29.46
300.229	15.46
300.363	13.46
300.496	6.46
300.629	-16.54
300.763	4.46
300.896	13.46
301.029	20.46
301.162	9.46
301.296	-5.54
301.429	-0.54
301.562	-17.54
301.695	15.46
301.829	8.46
301.962	37.46
302.095	8.46
302.228	6.46
302.362	19.46
302.495	-16.54
302.628	2.46
302.761	4.46
302.894	12.46
303.027	26.46
303.161	-2.54
303.294	-5.54
303.427	8.46
303.56	18.46
303.693	3.46
303.826	-0.54
303.959	10.46
304.092	0.46
304.225	-10.54
304.359	-2.54
304.492	-2.54
304.625	2.46
304.758	14.46
304.891	-4.54
305.024	-6.54
305.157	-0.54
305.29	3.46
305.423	-6.54
305.556	-7.54
305.689	19.46
305.822	29.46
305.955	16.46
306.088	0.46
306.221	1.46
306.354	12.46
306.487	-3.54
306.62	-2.54
306.752	-1.54
306.885	2.46
307.018	5.46
307.151	28.46
307.284	17.46
307.417	-10.54
307.55	11.46
307.683	10.46
307.816	19.46
307.948	5.46
308.081	35.46
308.214	22.46
308.347	23.46
308.48	-8.54
308.613	-3.54
308.745	11.46
308.878	-1.54
309.011	3.46
309.144	8.46
309.277	9.46
309.409	22.46
309.542	4.46
309.675	5.46
309.808	-6.54
309.94	27.46
310.073	-21.54
310.206	-0.54
310.339	19.46
310.471	-12.54
310.604	15.46
310.737	-0.54
310.869	-7.54
311.002	9.46
311.135	-1.54
311.267	-22.54
311.4	3.46
311.533	23.46
311.665	18.46
311.798	-6.54
311.93	-14.54
312.063	20.46
312.196	29.46
312.328	68.46
312.461	49.46
312.593	36.46
312.726	45.46
312.859	87.46
312.991	161.46
313.124	34.46
313.256	17.46
313.389	16.46
313.521	-4.54
313.654	-0.54
313.786	-6.54
313.919	10.46
314.051	10.46
314.184	13.46
314.316	12.46
314.449	-7.54
314.581	10.46
314.714	11.46
314.846	4.46
314.978	-14.54
315.111	7.46
315.243	17.46
315.376	25.46
315.508	23.46
315.641	15.46
315.773	25.46
315.905	18.46
316.038	-10.54
316.17	7.46
316.302	15.46
316.435	7.46
316.567	-15.54
316.699	8.46
316.832	8.46
316.964	4.46
317.096	6.46
317.229	-11.54
317.361	-15.54
317.493	12.46
317.625	-10.54
317.758	2.46
317.89	18.46
318.022	29.46
318.155	-9.54
318.287	11.46
318.419	4.46
318.551	14.46
318.683	-0.54
318.816	0.46
318.948	-5.54
319.08	-15.54
319.212	17.46
319.344	-1.54
319.477	14.46
319.609	19.46
319.741	1.46
319.873	-29.54
320.005	-3.54
320.137	2.46
320.269	10.46
320.401	20.46
320.534	-5.54
320.666	2.46
320.798	-10.54
320.93	-0.54
321.062	1.46
321.194	14.46
321.326	4.46
321.458	32.46
321.59	13.46
321.722	-3.54
321.854	7.46
321.986	10.46
322.118	9.46
322.25	-15.54
322.382	-11.54
322.514	-4.54
322.646	7.46
322.778	1.46
322.91	-13.54
323.042	21.46
323.174	12.46
323.306	-13.54
323.438	-8.54
323.57	16.46
323.702	8.46
323.834	2.46
323.966	-18.54
324.097	24.46
324.229	23.46
324.361	23.46
324.493	18.46
324.625	-0.54
324.757	14.46
324.889	-6.54
325.021	23.46
325.152	32.46
325.284	11.46
325.416	11.46
325.548	16.46
325.68	3.46
325.811	48.46
325.943	8.46
326.075	-10.54
326.207	1.46
326.339	3.46
326.47	12.46
326.602	16.46
326.734	22.46
326.866	31.46
326.997	-11.54
327.129	-8.54
327.261	-11.54
327.392	0.46
327.524	-5.54
327.656	11.46
327.787	22.46
327.919	7.46
328.051	13.46
328.182	28.46
328.314	37.46
328.446	10.46
328.577	43.46
328.709	14.46
328.841	-16.54
328.972	-7.54
329.104	-1.54
329.235	7.46
329.367	-8.54
329.499	9.46
329.63	4.46
329.762	-7.54
329.893	15.46
330.025	7.46
330.156	-17.54
330.288	21.46
330.419	23.46
330.551	8.46
330.683	7.46
330.814	12.46
330.946	11.46
331.077	-5.54
331.208	-11.54
331.34	-1.54
331.471	-24.54
331.603	10.46
331.734	4.46
331.866	20.46
331.997	8.46
332.129	8.46
332.26	8.46
332.392	8.46
332.523	10.46
332.654	-0.54
332.786	13.46
332.917	6.46
333.048	25.46
333.18	33.46
333.311	-10.54
333.443	-1.54
333.574	8.46
333.705	24.46
333.837	42.46
333.968	139.46
334.099	242.46
334.231	191.46
334.362	65.46
334.493	32.46
334.624	17.46
334.756	24.46
334.887	4.46
335.018	20.46
335.15	15.46
335.281	3.46
335.412	12.46
335.543	24.46
335.675	25.46
335.806	8.46
335.937	-2.54
336.068	11.46
336.199	33.46
336.331	12.46
336.462	7.46
336.593	1.46
336.724	3.46
336.855	6.46
336.986	24.46
337.118	17.46
337.249	39.46
337.38	5.46
337.511	11.46
337.642	14.46
337.773	6.46
337.904	-1.54
338.035	7.46
338.166	20.46
338.298	19.46
338.429	-2.54
338.56	24.46
338.691	45.46
338.822	16.46
338.953	10.46
339.084	19.46
339.215	6.46
339.346	23.46
339.477	7.46
339.608	3.46
339.739	13.46
339.87	-6.54
340.001	28.46
340.132	31.46
340.263	15.46
340.394	29.46
340.525	41.46
340.656	3.46
340.787	1.46
340.918	20.46
341.049	20.46
341.179	21.46
341.31	25.46
341.441	25.46
341.572	23.46
341.703	23.46
341.834	19.46
341.965	31.46
342.096	33.46
342.227	10.46
342.357	3.46
342.488	19.46
342.619	29.46
342.75	20.46
342.881	11.46
343.012	21.46
343.142	31.46
343.273	17.46
343.404	10.46
343.535	47.46
343.666	43.46
343.796	43.46
343.927	32.46
344.058	39.46
344.189	38.46
344.319	44.46
344.45	28.46
344.581	44.46
344.712	7.46
344.842	41.46
344.973	24.46
345.104	39.46
345.234	15.46
345.365	20.46
345.496	30.46
345.626	33.46
345.757	33.46
345.888	11.46
346.018	28.46
346.149	29.46
346.28	52.46
346.41	18.46
346.541	39.46
346.672	26.46
346.802	40.46
346.933	36.46
347.063	30.46
347.194	26.46
347.325	27.46
347.455	48.46
347.586	42.46
347.716	31.46
347.847	38.46
347.977	25.46
348.108	34.46
348.238	46.46
348.369	37.46
348.499	46.46
348.63	47.46
348.76	37.46
348.891	62.46
349.021	67.46
349.152	59.46
349.282	59.46
349.413	43.46
349.543	50.46
349.674	47.46
349.804	45.46
349.935	23.46
350.065	41.46
350.196	33.46
350.326	17.46
350.456	14.46
350.587	37.46
350.717	28.46
350.848	40.46
350.978	49.46
351.108	-2.54
351.239	34.46
351.369	20.46
351.499	18.46
351.63	27.46
351.76	18.46
351.89	27.46
352.021	35.46
352.151	25.46
352.281	37.46
352.412	21.46
352.542	23.46
352.672	12.46
352.803	18.46
352.933	27.46
353.063	25.46
353.193	32.46
353.324	20.46
353.454	41.46
353.584	44.46
353.714	13.46
353.845	48.46
353.975	22.46
354.105	24.46
354.235	19.46
354.365	19.46
354.496	12.46
354.626	34.46
354.756	42.46
354.886	27.46
355.016	33.46
355.146	15.46
355.277	31.46
355.407	15.46
355.537	24.46
355.667	11.46
355.797	12.46
355.927	18.46
356.057	55.46
356.187	29.46
356.318	22.46
356.448	38.46
356.578	45.46
356.708	57.46
356.838	19.46
356.968	27.46
357.098	17.46
357.228	45.46
357.358	36.46
357.488	30.46
357.618	49.46
357.748	45.46
357.878	37.46
358.008	22.46
358.138	20.46
358.268	30.46
358.398	35.46
358.528	30.46
358.658	22.46
358.788	22.46
358.918	30.46
359.048	23.46
359.178	23.46
359.308	32.46
359.438	41.46
359.568	40.46
359.698	33.46
359.827	29.46
359.957	48.46
360.087	47.46
360.217	30.46
360.347	40.46
360.477	32.46
360.607	15.46
360.737	48.46
360.866	21.46
360.996	25.46
361.126	25.46
361.256	64.46
361.386	54.46
361.516	44.46
361.645	21.46
361.775	35.46
361.905	29.46
362.035	52.46
362.165	39.46
362.294	46.46
362.424	46.46
362.554	39.46
362.684	28.46
362.813	44.46
362.943	42.46
363.073	43.46
363.203	61.46
363.332	68.46
363.462	65.46
363.592	91.46
363.721	126.46
363.851	174.46
363.981	214.46
364.111	247.46
364.24	334.46
364.37	500.46
364.5	851.46
364.629	1822.46
364.759	3820.46
364.888	6235.46
365.018	9383.46
365.148	14817.46
365.277	12967.46
365.407	4773.46
365.537	3153.46
365.666	4042.46
365.796	1840.46
365.925	812.46
366.055	750.46
366.184	1022.46
366.314	1406.46
366.444	2509.46
366.573	2091.46
366.703	655.46
366.832	220.46
366.962	120.46
367.091	86.46
367.221	99.46
367.35	61.46
367.48	101.46
367.609	51.46
367.739	61.46
367.868	33.46
367.998	50.46
368.127	61.46
368.257	48.46
368.386	45.46
368.516	55.46
368.645	48.46
368.775	56.46
368.904	36.46
369.033	33.46
369.163	28.46
369.292	49.46
369.422	38.46
369.551	36.46
369.68	54.46
369.81	48.46
369.939	20.46
370.069	57.46
370.198	37.46
370.327	35.46
370.457	44.46
370.586	41.46
370.715	34.46
370.845	40.46
370.974	57.46
371.103	58.46
371.233	57.46
371.362	53.46
371.491	27.46
371.621	67.46
371.75	44.46
371.879	50.46
372.008	42.46
372.138	53.46
372.267	60.46
372.396	63.46
372.525	22.46
372.655	19.46
372.784	26.46
372.913	45.46
373.042	26.46
373.172	32.46
373.301	0.46
373.43	12.46
373.559	25.46
373.688	62.46
373.818	60.46
373.947	20.46
374.076	27.46
374.205	39.46
374.334	6.46
374.463	16.46
374.593	19.46
374.722	43.46
374.851	26.46
374.98	1.46
375.109	14.46
375.238	43.46
375.367	48.46
375.496	15.46
375.625	8.46
375.755	32.46
375.884	29.46
376.013	31.46
376.142	23.46
376.271	5.46
376.4	34.46
376.529	22.46
376.658	37.46
376.787	34.46
376.916	26.46
377.045	37.46
377.174	29.46
377.303	16.46
377.432	41.46
377.561	43.46
377.69	24.46
377.819	41.46
377.948	18.46
378.077	22.46
378.206	13.46
378.335	12.46
378.464	17.46
378.593	45.46
378.722	19.46
378.851	10.46
378.98	31.46
379.108	-3.54
379.237	-4.54
379.366	34.46
379.495	28.46
379.624	40.46
379.753	16.46
379.882	32.46
380.011	24.46
380.14	6.46
380.268	3.46
380.397	22.46
380.526	50.46
380.655	18.46
380.784	10.46
380.913	25.46
381.041	33.46
381.17	14.46
381.299	12.46
381.428	21.46
381.557	41.46
381.685	6.46
381.814	44.46
381.943	10.46
382.072	3.46
382.2	4.46
382.329	9.46
382.458	23.46
382.587	15.46
382.715	21.46
382.844	16.46
382.973	31.46
383.102	16.46
383.23	24.46
383.359	2.46
383.488	16.46
383.616	12.46
383.745	3.46
383.874	22.46
384.003	15.46
384.131	26.46
384.26	19.46
384.389	11.46
384.517	2.46
384.646	-7.54
384.774	19.46
384.903	31.46
385.032	30.46
385.16	27.46
385.289	5.46
385.418	26.46
385.546	26.46
385.675	19.46
385.803	5.46
385.932	16.46
386.06	15.46
386.189	10.46
386.318	24.46
386.446	14.46
386.575	34.46
386.703	27.46
386.832	0.46
386.96	6.46
387.089	33.46
387.217	14.46
387.346	19.46
387.474	39.46
387.603	40.46
387.731	44.46
387.86	47.46
387.988	33.46
388.117	32.46
388.245	16.46
388.374	22.46
388.502	49.46
388.631	12.46
388.759	10.46
388.888	19.46
389.016	11.46
389.144	29.46
389.273	9.46
389.401	20.46
389.53	6.46
389.658	15.46
389.786	0.46
389.915	17.46
390.043	4.46
390.172	38.46
390.3	65.46
390.428	37.46
390.557	30.46
390.685	35.46
390.813	39.46
390.942	32.46
391.07	25.46
391.198	15.46
391.327	3.46
391.455	6.46
391.583	39.46
391.712	40.46
391.84	24.46
391.968	9.46
392.096	14.46
392.225	10.46
392.353	9.46
392.481	23.46
392.609	45.46
392.738	35.46
392.866	20.46
392.994	12.46
393.122	32.46
393.251	26.46
393.379	15.46
393.507	0.46
393.635	21.46
393.764	31.46
393.892	58.46
394.02	39.46
394.148	24.46
394.276	40.46
394.404	48.46
394.533	38.46
394.661	36.46
394.789	30.46
394.917	52.46
395.045	12.46
395.173	3.46
395.302	21.46
395.43	23.46
395.558	35.46
395.686	30.46
395.814	47.46
395.942	33.46
396.07	40.46
396.198	38.46
396.326	36.46
396.454	32.46
396.582	38.46
396.711	40.46
396.839	29.46
396.967	35.46
397.095	40.46
397.223	48.46
397.351	58.46
397.479	51.46
397.607	24.46
397.735	64.46
397.863	66.46
397.991	55.46
398.119	23.46
398.247	51.46
398.375	51.46
398.503	48.46
398.631	52.46
398.759	62.46
398.887	47.46
399.015	46.46
399.143	51.46
399.271	45.46
399.399	72.46
399.526	81.46
399.654	75.46
399.782	61.46
399.91	75.46
400.038	80.46
400.166	79.46
400.294	79.46
400.422	74.46
400.55	106.46
400.678	102.46
400.805	100.46
400.933	113.46
401.061	130.46
401.189	132.46
401.317	153.46
401.445	119.46
401.573	84.46
401.7	72.46
401.828	59.46
401.956	49.46
402.084	48.46
402.212	47.46
402.34	28.46
402.467	45.46
402.595	46.46
402.723	42.46
402.851	62.46
402.978	49.46
403.106	75.46
403.234	102.46
403.362	139.46
403.489	125.46
403.617	141.46
403.745	186.46
403.873	258.46
404	539.46
404.128	1447.46
404.256	3953.46
404.384	5124.46
404.511	5472.46
404.639	7216.46
404.767	11488.46
404.894	14663.46
405.022	4915.46
405.15	1312.46
405.277	421.46
405.405	219.46
405.533	126.46
405.66	114.46
405.788	55.46
405.916	87.46
406.043	50.46
406.171	62.46
406.299	53.46
406.426	76.46
406.554	54.46
406.681	78.46
406.809	61.46
406.937	57.46
407.064	60.46
407.192	134.46
407.319	308.46
407.447	516.46
407.574	546.46
407.702	623.46
407.83	835.46
407.957	1595.46
408.085	929.46
408.212	281.46
408.34	100.46
408.467	48.46
408.595	48.46
408.722	65.46
408.85	49.46
408.977	38.46
409.105	27.46
409.232	38.46
409.36	14.46
409.487	29.46
409.615	39.46
409.742	31.46
409.87	38.46
409.997	34.46
410.125	35.46
410.252	54.46
410.379	26.46
410.507	48.46
410.634	27.46
410.762	23.46
410.889	40.46
411.017	46.46
411.144	35.46
411.271	25.46
411.399	20.46
411.526	27.46
411.653	29.46
411.781	46.46
411.908	29.46
412.036	44.46
412.163	30.46
412.29	51.46
412.418	34.46
412.545	35.46
412.672	29.46
412.8	36.46
412.927	25.46
413.054	40.46
413.182	10.46
413.309	42.46
413.436	12.46
413.564	37.46
413.691	19.46
413.818	36.46
413.945	10.46
414.073	39.46
414.2	27.46
414.327	35.46
414.454	29.46
414.582	35.46
414.709	42.46
414.836	32.46
414.963	36.46
415.091	31.46
415.218	30.46
415.345	36.46
415.472	50.46
415.6	46.46
415.727	33.46
415.854	26.46
415.981	28.46
416.108	28.46
416.236	40.46
416.363	41.46
416.49	27.46
416.617	18.46
416.744	20.46
416.871	42.46
416.998	22.46
417.126	24.46
417.253	21.46
417.38	27.46
417.507	35.46
417.634	20.46
417.761	21.46
417.888	35.46
418.015	28.46
418.143	37.46
418.27	59.46
418.397	36.46
418.524	35.46
418.651	35.46
418.778	52.46
418.905	68.46
419.032	68.46
419.159	45.46
419.286	61.46
419.413	51.46
419.54	47.46
419.667	34.46
419.794	32.46
419.921	50.46
420.048	56.46
420.175	42.46
420.302	51.46
420.429	67.46
420.556	49.46
420.683	51.46
420.81	51.46
420.937	76.46
421.064	61.46
421.191	58.46
421.318	64.46
421.445	87.46
421.572	65.46
421.699	70.46
421.826	63.46
421.953	47.46
422.08	34.46
422.207	16.46
422.334	-1.54
422.461	42.46
422.588	24.46
422.714	35.46
422.841	26.46
422.968	18.46
423.095	28.46
423.222	26.46
423.349	37.46
423.476	34.46
423.603	12.46
423.729	14.46
423.856	28.46
423.983	37.46
424.11	10.46
424.237	28.46
424.364	38.46
424.491	29.46
424.617	13.46
424.744	14.46
424.871	29.46
424.998	18.46
425.125	-4.54
425.251	14.46
425.378	7.46
425.505	25.46
425.632	22.46
425.758	23.46
425.885	36.46
426.012	52.46
426.139	47.46
426.266	29.46
426.392	45.46
426.519	36.46
426.646	7.46
426.772	49.46
426.899	13.46
427.026	12.46
427.153	35.46
427.279	24.46
427.406	15.46
427.533	41.46
427.659	16.46
427.786	25.46
427.913	42.46
428.039	22.46
428.166	17.46
428.293	17.46
428.419	38.46
428.546	26.46
428.673	12.46
428.799	10.46
428.926	30.46
429.053	36.46
429.179	36.46
429.306	48.46
429.433	51.46
429.559	51.46
429.686	11.46
429.812	26.46
429.939	9.46
430.066	42.46
430.192	13.46
430.319	44.46
430.445	24.46
430.572	36.46
430.699	26.46
430.825	41.46
430.952	46.46
431.078	37.46
431.205	45.46
431.331	38.46
431.458	43.46
431.584	30.46
431.711	22.46
431.837	28.46
431.964	35.46
432.09	30.46
432.217	-0.54
432.343	25.46
432.47	55.46
432.596	22.46
432.723	42.46
432.849	29.46
432.976	35.46
433.102	35.46
433.229	30.46
433.355	63.46
433.482	77.46
433.608	111.46
433.735	114.46
433.861	115.46
433.987	136.46
434.114	183.46
434.24	164.46
434.367	214.46
434.493	220.46
434.62	281.46
434.746	389.46
434.872	617.46
434.999	830.46
435.125	1741.46
435.252	5534.46
435.378	13438.46
435.504	15228.46
435.631	15440.46
435.757	15685.46
435.883	15685.46
436.01	15685.46
436.136	15685.46
436.262	15685.46
436.389	3474.46
436.515	2185.46
436.641	833.46
436.768	638.46
436.894	403.46
437.02	385.46
437.147	302.46
437.273	292.46
437.399	215.46
437.526	237.46
437.652	173.46
437.778	211.46
437.904	138.46
438.031	169.46
438.157	136.46
438.283	157.46
438.409	112.46
438.536	159.46
438.662	131.46
438.788	153.46
438.914	110.46
439.041	124.46
439.167	110.46
439.293	88.46
439.419	90.46
439.546	111.46
439.672	76.46
439.798	98.46
439.924	96.46
440.05	92.46
440.177	79.46
440.303	70.46
440.429	57.46
440.555	82.46
440.681	63.46
440.807	82.46
440.934	62.46
441.06	70.46
441.186	39.46
441.312	72.46
441.438	61.46
441.564	76.46
441.69	76.46
441.816	75.46
441.943	64.46
442.069	55.46
442.195	62.46
442.321	72.46
442.447	43.46
442.573	61.46
442.699	25.46
442.825	31.46
442.951	62.46
443.077	52.46
443.203	47.46
443.33	51.46
443.456	26.46
443.582	48.46
443.708	26.46
443.834	64.46
443.96	42.46
444.086	55.46
444.212	55.46
444.338	62.46
444.464	57.46
444.59	50.46
444.716	33.46
444.842	48.46
444.968	15.46
445.094	55.46
445.22	32.46
445.346	18.46
445.472	40.46
445.598	39.46
445.724	33.46
445.85	40.46
445.976	29.46
446.102	58.46
446.228	39.46
446.354	49.46
446.48	40.46
446.605	45.46
446.731	55.46
446.857	37.46
446.983	24.46
447.109	20.46
447.235	29.46
447.361	26.46
447.487	35.46
447.613	42.46
447.739	25.46
447.865	34.46
447.99	46.46
448.116	47.46
448.242	26.46
448.368	47.46
448.494	33.46
448.62	39.46
448.746	18.46
448.872	33.46
448.997	12.46
449.123	41.46
449.249	37.46
449.375	50.46
449.501	28.46
449.627	26.46
449.752	44.46
449.878	31.46
450.004	19.46
450.13	33.46
450.256	28.46
450.381	31.46
450.507	7.46
450.633	24.46
450.759	45.46
450.884	20.46
451.01	26.46
451.136	24.46
451.262	29.46
451.388	47.46
451.513	8.46
451.639	46.46
451.765	53.46
451.89	44.46
452.016	40.46
452.142	26.46
452.268	26.46
452.393	57.46
452.519	28.46
452.645	19.46
452.771	-1.54
452.896	39.46
453.022	18.46
453.148	39.46
453.273	32.46
453.399	49.46
453.525	14.46
453.65	26.46
453.776	41.46
453.902	40.46
454.027	31.46
454.153	38.46
454.279	58.46
454.404	30.46
454.53	42.46
454.656	40.46
454.781	27.46
454.907	19.46
455.032	12.46
455.158	37.46
455.284	31.46
455.409	33.46
455.535	27.46
455.66	33.46
455.786	30.46
455.912	27.46
456.037	6.46
456.163	40.46
456.288	30.46
456.414	6.46
456.539	24.46
456.665	34.46
456.791	11.46
456.916	29.46
457.042	42.46
457.167	7.46
457.293	35.46
457.418	20.46
457.544	26.46
457.669	28.46
457.795	23.46
457.92	36.46
458.046	33.46
458.171	32.46
458.297	17.46
458.422	1.46
458.548	-0.54
458.673	28.46
458.799	26.46
458.924	33.46
459.05	20.46
459.175	28.46
459.301	26.46
459.426	38.46
459.552	32.46
459.677	21.46
459.803	29.46
459.928	34.46
460.053	25.46
460.179	20.46
460.304	31.46
460.43	16.46
460.555	30.46
460.681	32.46
460.806	26.46
460.931	36.46
461.057	47.46
461.182	27.46
461.308	36.46
461.433	14.46
461.558	7.46
461.684	24.46
461.809	34.46
461.934	29.46
462.06	39.46
462.185	16.46
462.311	35.46
462.436	27.46
462.561	39.46
462.687	22.46
462.812	44.46
462.937	20.46
463.063	24.46
463.188	32.46
463.313	31.46
463.439	30.46
463.564	15.46
463.689	19.46
463.814	25.46
463.94	38.46
464.065	38.46
464.19	29.46
464.316	18.46
464.441	15.46
464.566	24.46
464.692	16.46
464.817	26.46
464.942	14.46
465.067	18.46
465.193	2.46
465.318	16.46
465.443	37.46
465.568	23.46
465.694	19.46
465.819	36.46
465.944	34.46
466.069	35.46
466.194	28.46
466.32	34.46
466.445	28.46
466.57	31.46
466.695	20.46
466.82	28.46
466.946	35.46
467.071	20.46
467.196	27.46
467.321	43.46
467.446	42.46
467.572	40.46
467.697	25.46
467.822	42.46
467.947	46.46
468.072	16.46
468.197	23.46
468.323	26.46
468.448	39.46
468.573	39.46
468.698	34.46
468.823	37.46
468.948	51.46
469.073	47.46
469.198	57.46
469.324	53.46
469.449	34.46
469.574	46.46
469.699	58.46
469.824	44.46
469.949	30.46
470.074	42.46
470.199	56.46
470.324	36.46
470.449	36.46
470.574	21.46
470.7	43.46
470.825	47.46
470.95	56.46
471.075	39.46
471.2	55.46
471.325	64.46
471.45	51.46
471.575	41.46
471.7	32.46
471.825	25.46
471.95	39.46
472.075	37.46
472.2	45.46
472.325	37.46
472.45	34.46
472.575	22.46
472.7	18.46
472.825	50.46
472.95	46.46
473.075	47.46
473.2	39.46
473.325	54.46
473.45	40.46
473.575	16.46
473.7	63.46
473.825	37.46
473.95	37.46
474.075	37.46
474.2	10.46
474.325	23.46
474.45	35.46
474.574	27.46
474.699	24.46
474.824	23.46
474.949	13.46
475.074	26.46
475.199	41.46
475.324	34.46
475.449	26.46
475.574	18.46
475.699	21.46
475.824	18.46
475.949	30.46
476.073	16.46
476.198	29.46
476.323	15.46
476.448	25.46
476.573	28.46
476.698	38.46
476.823	48.46
476.947	22.46
477.072	15.46
477.197	20.46
477.322	26.46
477.447	24.46
477.572	9.46
477.697	12.46
477.821	10.46
477.946	24.46
478.071	34.46
478.196	50.46
478.321	22.46
478.445	18.46
478.57	15.46
478.695	5.46
478.82	51.46
478.945	20.46
479.069	6.46
479.194	19.46
479.319	31.46
479.444	23.46
479.569	16.46
479.693	28.46
479.818	24.46
479.943	24.46
480.068	16.46
480.192	18.46
480.317	4.46
480.442	17.46
480.567	33.46
480.691	11.46
480.816	29.46
480.941	12.46
481.066	29.46
481.19	22.46
481.315	33.46
481.44	25.46
481.564	-7.54
481.689	28.46
481.814	23.46
481.938	26.46
482.063	8.46
482.188	22.46
482.313	30.46
482.437	4.46
482.562	31.46
482.687	19.46
482.811	19.46
482.936	9.46
483.061	27.46
483.185	35.46
483.31	29.46
483.435	16.46
483.559	12.46
483.684	30.46
483.808	40.46
483.933	34.46
484.058	9.46
484.182	26.46
484.307	18.46
484.432	17.46
484.556	17.46
484.681	37.46
484.805	34.46
484.93	27.46
485.055	30.46
485.179	47.46
485.304	31.46
485.428	27.46
485.553	15.46
485.678	36.46
485.802	36.46
485.927	47.46
486.051	35.46
486.176	26.46
486.3	17.46
486.425	16.46
486.549	19.46
486.674	31.46
486.799	22.46
486.923	23.46
487.048	22.46
487.172	22.46
487.297	34.46
487.421	26.46
487.546	20.46
487.67	23.46
487.795	10.46
487.919	15.46
488.044	39.46
488.168	21.46
488.293	37.46
488.417	7.46
488.542	34.46
488.666	31.46
488.791	34.46
488.915	18.46
489.04	30.46
489.164	17.46
489.289	25.46
489.413	20.46
489.538	38.46
489.662	42.46
489.786	33.46
489.911	37.46
490.035	26.46
490.16	6.46
490.284	17.46
490.409	-0.54
490.533	13.46
490.658	32.46
490.782	32.46
490.906	61.46
491.031	98.46
491.155	146.46
491.28	168.46
491.404	176.46
491.528	245.46
491.653	156.46
491.777	70.46
491.902	28.46
492.026	31.46
492.15	41.46
492.275	55.46
492.399	34.46
492.524	14.46
492.648	58.46
492.772	30.46
492.897	33.46
493.021	34.46
493.145	41.46
493.27	48.46
493.394	29.46
493.518	20.46
493.643	11.46
493.767	23.46
493.891	2.46
494.016	23.46
494.14	13.46
494.264	8.46
494.389	25.46
494.513	18.46
494.637	15.46
494.762	38.46
494.886	32.46
495.01	15.46
495.134	32.46
495.259	44.46
495.383	31.46
495.507	19.46
495.632	27.46
495.756	66.46
495.88	29.46
496.004	24.46
496.129	16.46
496.253	41.46
496.377	38.46
496.501	40.46
496.626	18.46
496.75	-4.54
496.874	24.46
496.998	-1.54
497.123	43.46
497.247	13.46
497.371	26.46
497.495	36.46
497.62	26.46
497.744	9.46
497.868	8.46
497.992	27.46
498.116	18.46
498.241	18.46
498.365	12.46
498.489	16.46
498.613	35.46
498.737	24.46
498.862	38.46
498.986	17.46
499.11	40.46
499.234	14.46
499.358	8.46
499.482	24.46
499.607	31.46
499.731	17.46
499.855	37.46
499.979	20.46
500.103	40.46
500.227	33.46
500.351	19.46
500.476	30.46
500.6	19.46
500.724	14.46
500.848	12.46
500.972	36.46
501.096	39.46
501.22	38.46
501.344	29.46
501.469	30.46
501.593	15.46
501.717	34.46
501.841	22.46
501.965	16.46
502.089	24.46
502.213	38.46
502.337	26.46
502.461	14.46
502.585	12.46
502.709	27.46
502.834	15.46
502.958	20.46
503.082	18.46
503.206	24.46
503.33	46.46
503.454	11.46
503.578	33.46
503.702	40.46
503.826	44.46
503.95	29.46
504.074	23.46
504.198	16.46
504.322	4.46
504.446	11.46
504.57	34.46
504.694	24.46
504.818	12.46
504.942	37.46
505.066	24.46
505.19	18.46
505.314	20.46
505.438	20.46
505.562	17.46
505.686	28.46
505.81	21.46
505.934	30.46
506.058	20.46
506.182	25.46
506.306	42.46
506.43	24.46
506.554	13.46
506.678	26.46
506.802	30.46
506.926	35.46
507.05	32.46
507.174	26.46
507.298	22.46
507.422	23.46
507.546	19.46
507.67	18.46
507.794	10.46
507.918	32.46
508.042	45.46
508.165	19.46
508.289	27.46
508.413	31.46
508.537	36.46
508.661	45.46
508.785	19.46
508.909	31.46
509.033	37.46
509.157	29.46
509.281	24.46
509.405	19.46
509.528	33.46
509.652	50.46
509.776	29.46
509.9	28.46
510.024	35.46
510.148	32.46
510.272	37.46
510.396	36.46
510.519	32.46
510.643	52.46
510.767	38.46
510.891	30.46
511.015	29.46
511.139	63.46
511.263	56.46
511.386	44.46
511.51	46.46
511.634	35.46
511.758	31.46
511.882	19.46
512.006	62.46
512.129	57.46
512.253	76.46
512.377	81.46
512.501	96.46
512.625	78.46
512.748	87.46
512.872	83.46
512.996	52.46
513.12	78.46
513.244	56.46
513.367	64.46
513.491	79.46
513.615	77.46
513.739	90.46
513.862	81.46
513.986	93.46
514.11	91.46
514.234	109.46
514.358	103.46
514.481	126.46
514.605	110.46
514.729	131.46
514.853	128.46
514.976	118.46
515.1	98.46
515.224	124.46
515.348	92.46
515.471	72.46
515.595	116.46
515.719	140.46
515.842	220.46
515.966	287.46
516.09	338.46
516.214	313.46
516.337	343.46
516.461	256.46
516.585	94.46
516.708	49.46
516.832	14.46
516.956	30.46
517.08	26.46
517.203	16.46
517.327	4.46
517.451	27.46
517.574	27.46
517.698	23.46
517.822	20.46
517.945	23.46
518.069	36.46
518.193	68.46
518.316	38.46
518.44	31.46
518.564	20.46
518.687	10.46
518.811	43.46
518.935	45.46
519.058	28.46
519.182	30.46
519.306	38.46
519.429	32.46
519.553	66.46
519.676	36.46
519.8	11.46
519.924	0.46
520.047	15.46
520.171	3.46
520.294	15.46
520.418	8.46
520.542	10.46
520.665	34.46
520.789	29.46
520.913	12.46
521.036	-0.54
521.16	27.46
521.283	13.46
521.407	24.46
521.53	6.46
521.654	6.46
521.778	22.46
521.901	27.46
522.025	20.46
522.148	19.46
522.272	22.46
522.395	9.46
522.519	15.46
522.643	24.46
522.766	3.46
522.89	19.46
523.013	35.46
523.137	14.46
523.26	19.46
523.384	36.46
523.507	39.46
523.631	25.46
523.754	6.46
523.878	15.46
524.002	28.46
524.125	6.46
524.249	9.46
524.372	31.46
524.496	33.46
524.619	39.46
524.743	16.46
524.866	19.46
524.99	18.46
525.113	7.46
525.237	20.46
525.36	4.46
525.484	32.46
525.607	13.46
525.731	7.46
525.854	29.46
525.978	23.46
526.101	11.46
526.224	10.46
526.348	14.46
526.471	22.46
526.595	29.46
526.718	18.46
526.842	18.46
526.965	26.46
527.089	24.46
527.212	32.46
527.336	17.46
527.459	31.46
527.582	22.46
527.706	10.46
527.829	20.46
527.953	21.46
528.076	11.46
528.2	5.46
528.323	9.46
528.446	29.46
528.57	11.46
528.693	38.46
528.817	13.46
528.94	28.46
529.064	35.46
529.187	18.46
529.31	12.46
529.434	19.46
529.557	15.46
529.68	7.46
529.804	15.46
529.927	18.46
530.051	7.46
530.174	19.46
530.297	4.46
530.421	34.46
530.544	39.46
530.668	31.46
530.791	16.46
530.914	32.46
531.038	22.46
531.161	27.46
531.284	15.46
531.408	31.46
531.531	-0.54
531.654	23.46
531.778	27.46
531.901	15.46
532.024	28.46
532.148	24.46
532.271	12.46
532.394	12.46
532.518	10.46
532.641	23.46
532.764	45.46
532.888	11.46
533.011	-11.54
533.134	18.46
533.258	37.46
533.381	23.46
533.504	12.46
533.628	15.46
533.751	27.46
533.874	34.46
533.997	24.46
534.121	7.46
534.244	26.46
534.367	15.46
534.491	31.46
534.614	10.46
534.737	22.46
534.86	32.46
534.984	17.46
535.107	4.46
535.23	26.46
535.354	21.46
535.477	14.46
535.6	33.46
535.723	27.46
535.847	25.46
535.97	6.46
536.093	11.46
536.216	33.46
536.34	37.46
536.463	20.46
536.586	22.46
536.709	27.46
536.833	39.46
536.956	24.46
537.079	23.46
537.202	14.46
537.325	21.46
537.449	3.46
537.572	17.46
537.695	14.46
537.818	4.46
537.941	24.46
538.065	15.46
538.188	10.46
538.311	42.46
538.434	29.46
538.558	39.46
538.681	24.46
538.804	30.46
538.927	25.46
539.05	27.46
539.173	20.46
539.297	19.46
539.42	32.46
539.543	31.46
539.666	35.46
539.789	32.46
539.913	35.46
540.036	15.46
540.159	16.46
540.282	18.46
540.405	1.46
540.528	25.46
540.651	39.46
540.775	17.46
540.898	25.46
541.021	20.46
541.144	38.46
541.267	36.46
541.39	37.46
541.513	47.46
541.637	24.46
541.76	32.46
541.883	36.46
542.006	43.46
542.129	64.46
542.252	37.46
542.375	44.46
542.498	56.46
542.622	65.46
542.745	62.46
542.868	50.46
542.991	65.46
543.114	43.46
543.237	61.46
543.36	67.46
543.483	67.46
543.606	69.46
543.73	98.46
543.853	81.46
543.976	87.46
544.099	97.46
544.222	125.46
544.345	152.46
544.468	181.46
544.591	233.46
544.714	277.46
544.837	374.46
544.96	466.46
545.083	678.46
545.206	1128.46
545.329	2446.46
545.453	10991.46
545.576	15263.46
545.699	15685.46
545.822	15685.46
545.945	15685.46
546.068	15685.46
546.191	15685.46
546.314	15685.46
546.437	15685.46
546.56	15685.46
546.683	15685.46
546.806	15685.46
546.929	15685.46
547.052	15685.46
547.175	15685.46
547.298	15685.46
547.421	15685.46
547.544	15685.46
547.667	3594.46
547.79	2912.46
547.913	1116.46
548.036	921.46
548.159	640.46
548.282	628.46
548.405	518.46
548.528	487.46
548.651	400.46
548.774	405.46
548.897	352.46
549.02	363.46
549.143	322.46
549.266	310.46
549.389	278.46
549.512	287.46
549.635	268.46
549.758	257.46
549.881	206.46
550.004	210.46
550.127	209.46
550.25	195.46
550.373	172.46
550.496	193.46
550.619	168.46
550.742	164.46
550.865	155.46
550.988	174.46
551.111	158.46
551.234	144.46
551.356	126.46
551.479	136.46
551.602	132.46
551.725	149.46
551.848	155.46
551.971	139.46
552.094	132.46
552.217	128.46
552.34	110.46
552.463	99.46
552.586	104.46
552.709	95.46
552.832	104.46
552.955	116.46
553.077	137.46
553.2	99.46
553.323	102.46
553.446	97.46
553.569	98.46
553.692	97.46
553.815	104.46
553.938	88.46
554.061	103.46
554.184	102.46
554.306	85.46
554.429	80.46
554.552	87.46
554.675	78.46
554.798	83.46
554.921	76.46
555.044	79.46
555.167	76.46
555.29	63.46
555.412	73.46
555.535	72.46
555.658	82.46
555.781	87.46
555.904	68.46
556.027	85.46
556.15	73.46
556.272	87.46
556.395	80.46
556.518	67.46
556.641	73.46
556.764	62.46
556.887	83.46
557.01	70.46
557.132	60.46
557.255	80.46
557.378	80.46
557.501	60.46
557.624	89.46
557.747	76.46
557.869	81.46
557.992	84.46
558.115	91.46
558.238	80.46
558.361	105.46
558.483	95.46
558.606	78.46
558.729	38.46
558.852	70.46
558.975	80.46
559.098	82.46
559.22	65.46
559.343	40.46
559.466	65.46
559.589	64.46
559.712	50.46
559.834	62.46
559.957	50.46
560.08	35.46
560.203	58.46
560.325	48.46
560.448	70.46
560.571	48.46
560.694	58.46
560.817	84.46
560.939	50.46
561.062	74.46
561.185	67.46
561.308	69.46
561.43	67.46
561.553	54.46
561.676	50.46
561.799	70.46
561.921	56.46
562.044	61.46
562.167	60.46
562.29	80.46
562.413	64.46
562.535	75.46
562.658	48.46
562.781	67.46
562.903	74.46
563.026	86.46
563.149	142.46
563.272	127.46
563.394	120.46
563.517	104.46
563.64	70.46
563.763	56.46
563.885	40.46
564.008	74.46
564.131	45.46
564.254	31.46
564.376	58.46
564.499	31.46
564.622	54.46
564.744	54.46
564.867	52.46
564.99	46.46
565.113	46.46
565.235	48.46
565.358	31.46
565.481	27.46
565.603	41.46
565.726	51.46
565.849	47.46
565.971	34.46
566.094	48.46
566.217	52.46
566.34	44.46
566.462	42.46
566.585	46.46
566.708	56.46
566.83	33.46
566.953	56.46
567.076	32.46
567.198	37.46
567.321	10.46
567.444	53.46
567.566	37.46
567.689	22.46
567.812	25.46
567.934	46.46
568.057	30.46
568.18	45.46
568.302	29.46
568.425	34.46
568.548	38.46
568.67	47.46
568.793	52.46
568.916	49.46
569.038	21.46
569.161	39.46
569.283	28.46
569.406	39.46
569.529	40.46
569.651	21.46
569.774	38.46
569.897	28.46
570.019	43.46
570.142	33.46
570.265	46.46
570.387	46.46
570.51	39.46
570.632	49.46
570.755	37.46
570.878	28.46
571	50.46
571.123	28.46
571.246	46.46
571.368	43.46
571.491	27.46
571.613	34.46
571.736	32.46
571.859	28.46
571.981	23.46
572.104	31.46
572.226	35.46
572.349	21.46
572.472	26.46
572.594	42.46
572.717	31.46
572.839	19.46
572.962	30.46
573.085	39.46
573.207	49.46
573.33	31.46
573.452	39.46
573.575	56.46
573.697	36.46
573.82	18.46
573.943	32.46
574.065	43.46
574.188	39.46
574.31	50.46
574.433	36.46
574.555	53.46
574.678	31.46
574.801	38.46
574.923	27.46
575.046	48.46
575.168	23.46
575.291	35.46
575.413	37.46
575.536	56.46
575.659	53.46
575.781	63.46
575.904	75.46
576.026	84.46
576.149	86.46
576.271	118.46
576.394	211.46
576.516	519.46
576.639	3632.46
576.761	10236.46
576.884	8815.46
577.007	8717.46
577.129	7944.46
577.252	3699.46
577.374	1318.46
577.497	527.46
577.619	293.46
577.742	170.46
577.864	156.46
577.987	113.46
578.109	116.46
578.232	123.46
578.354	155.46
578.477	168.46
578.599	376.46
578.722	1930.46
578.844	9127.46
578.967	9844.46
579.089	8789.46
579.212	9083.46
579.334	5301.46
579.457	1921.46
579.579	711.46
579.702	345.46
579.824	203.46
579.947	122.46
580.069	122.46
580.192	88.46
580.314	93.46
580.437	77.46
580.559	84.46
580.682	79.46
580.804	58.46
580.927	67.46
581.049	66.46
581.172	46.46
581.294	48.46
581.417	39.46
581.539	56.46
581.662	50.46
581.784	43.46
581.907	55.46
582.029	41.46
582.152	29.46
582.274	54.46
582.396	28.46
582.519	51.46
582.641	27.46
582.764	31.46
582.886	49.46
583.009	30.46
583.131	29.46
583.254	40.46
583.376	54.46
583.499	38.46
583.621	43.46
583.743	52.46
583.866	54.46
583.988	44.46
584.111	48.46
584.233	49.46
584.356	29.46
584.478	28.46
584.601	10.46
584.723	20.46
584.845	41.46
584.968	20.46
585.09	17.46
585.213	43.46
585.335	26.46
585.458	34.46
585.58	37.46
585.702	50.46
585.825	44.46
585.947	41.46
586.07	15.46
586.192	14.46
586.315	47.46
586.437	9.46
586.559	34.46
586.682	34.46
586.804	43.46
586.927	28.46
587.049	23.46
587.171	27.46
587.294	39.46
587.416	48.46
587.539	30.46
587.661	17.46
587.783	8.46
587.906	11.46
588.028	32.46
588.151	32.46
588.273	40.46
588.395	15.46
588.518	22.46
588.64	29.46
588.763	37.46
588.885	33.46
589.007	36.46
589.13	30.46
589.252	24.46
589.375	38.46
589.497	20.46
589.619	34.46
589.742	36.46
589.864	39.46
589.986	28.46
590.109	28.46
590.231	11.46
590.354	27.46
590.476	18.46
590.598	32.46
590.721	21.46
590.843	14.46
590.965	33.46
591.088	29.46
591.21	36.46
591.332	32.46
591.455	19.46
591.577	17.46
591.7	28.46
591.822	20.46
591.944	24.46
592.067	25.46
592.189	35.46
592.311	28.46
592.434	14.46
592.556	51.46
592.678	35.46
592.801	23.46
592.923	7.46
593.045	12.46
593.168	38.46
593.29	26.46
593.412	46.46
593.535	15.46
593.657	40.46
593.779	19.46
593.902	38.46
594.024	13.46
594.146	21.46
594.269	27.46
594.391	22.46
594.513	31.46
594.636	28.46
594.758	12.46
594.88	25.46
595.003	14.46
595.125	35.46
595.247	42.46
595.37	38.46
595.492	8.46
595.614	49.46
595.737	49.46
595.859	43.46
595.981	38.46
596.104	19.46
596.226	22.46
596.348	23.46
596.471	25.46
596.593	6.46
596.715	12.46
596.838	2.46
596.96	18.46
597.082	43.46
597.204	36.46
597.327	34.46
597.449	24.46
597.571	36.46
597.694	27.46
597.816	41.46
597.938	18.46
598.061	13.46
598.183	32.46
598.305	41.46
598.427	29.46
598.55	33.46
598.672	38.46
598.794	31.46
598.917	24.46
599.039	22.46
599.161	27.46
599.283	26.46
599.406	22.46
599.528	28.46
599.65	49.46
599.773	34.46
599.895	30.46
600.017	40.46
600.139	34.46
600.262	14.46
600.384	31.46
600.506	14.46
600.628	36.46
600.751	47.46
600.873	24.46
600.995	22.46
601.118	23.46
601.24	23.46
601.362	26.46
601.484	36.46
601.607	44.46
601.729	28.46
601.851	18.46
601.973	7.46
602.096	26.46
602.218	37.46
602.34	27.46
602.462	32.46
602.585	20.46
602.707	18.46
602.829	31.46
602.951	37.46
603.074	10.46
603.196	27.46
603.318	20.46
603.44	28.46
603.563	21.46
603.685	7.46
603.807	18.46
603.929	36.46
604.052	43.46
604.174	36.46
604.296	28.46
604.418	29.46
604.541	38.46
604.663	17.46
604.785	31.46
604.907	13.46
605.03	3.46
605.152	52.46
605.274	20.46
605.396	33.46
605.519	30.46
605.641	18.46
605.763	34.46
605.885	19.46
606.008	16.46
606.13	36.46
606.252	38.46
606.374	7.46
606.496	-2.54
606.619	19.46
606.741	28.46
606.863	40.46
606.985	45.46
607.108	35.46
607.23	26.46
607.352	11.46
607.474	26.46
607.596	34.46
607.719	19.46
607.841	28.46
607.963	16.46
608.085	18.46
608.207	22.46
608.33	35.46
608.452	27.46
608.574	8.46
608.696	41.46
608.819	16.46
608.941	32.46
609.063	26.46
609.185	29.46
609.307	42.46
609.43	34.46
609.552	31.46
609.674	6.46
609.796	16.46
609.918	30.46
610.041	17.46
610.163	36.46
610.285	19.46
610.407	29.46
610.529	14.46
610.652	48.46
610.774	31.46
610.896	34.46
611.018	10.46
611.14	10.46
611.263	14.46
611.385	23.46
611.507	32.46
611.629	20.46
611.751	32.46
611.873	47.46
611.996	33.46
612.118	20.46
612.24	47.46
612.362	48.46
612.484	29.46
612.607	20.46
612.729	40.46
612.851	29.46
612.973	12.46
613.095	23.46
613.218	34.46
613.34	35.46
613.462	21.46
613.584	16.46
613.706	22.46
613.828	34.46
613.951	20.46
614.073	23.46
614.195	2.46
614.317	43.46
614.439	26.46
614.561	14.46
614.684	22.46
614.806	32.46
614.928	27.46
615.05	27.46
615.172	22.46
615.294	29.46
615.417	11.46
615.539	33.46
615.661	30.46
615.783	48.46
615.905	13.46
616.027	8.46
616.15	36.46
616.272	43.46
616.394	27.46
616.516	6.46
616.638	19.46
616.76	29.46
616.883	27.46
617.005	13.46
617.127	23.46
617.249	17.46
617.371	9.46
617.493	22.46
617.615	39.46
617.738	12.46
617.86	18.46
617.982	18.46
618.104	23.46
618.226	27.46
618.348	28.46
618.471	16.46
618.593	25.46
618.715	15.46
618.837	18.46
618.959	25.46
619.081	44.46
619.203	21.46
619.326	37.46
619.448	28.46
619.57	41.46
619.692	27.46
619.814	50.46
619.936	15.46
620.058	22.46
620.181	33.46
620.303	29.46
620.425	23.46
620.547	16.46
620.669	16.46
620.791	11.46
620.913	15.46
621.036	25.46
621.158	23.46
621.28	28.46
621.402	14.46
621.524	29.46
621.646	30.46
621.768	21.46
621.891	11.46
622.013	25.46
622.135	7.46
622.257	-11.54
622.379	12.46
622.501	23.46
622.623	16.46
622.745	31.46
622.868	12.46
622.99	21.46
623.112	10.46
623.234	8.46
623.356	37.46
623.478	10.46
623.6	16.46
623.722	14.46
623.845	27.46
623.967	23.46
624.089	24.46
624.211	26.46
624.333	26.46
624.455	36.46
624.577	29.46
624.699	40.46
624.822	38.46
624.944	21.46
625.066	18.46
625.188	9.46
625.31	11.46
625.432	30.46
625.554	28.46
625.676	40.46
625.799	19.46
625.921	27.46
626.043	32.46
626.165	23.46
626.287	7.46
626.409	16.46
626.531	6.46
626.653	20.46
626.775	26.46
626.898	34.46
627.02	32.46
627.142	42.46
627.264	35.46
627.386	28.46
627.508	36.46
627.63	13.46
627.752	22.46
627.874	29.46
627.997	11.46
628.119	42.46
628.241	30.46
628.363	11.46
628.485	23.46
628.607	31.46
628.729	28.46
628.851	10.46
628.973	27.46
629.096	9.46
629.218	13.46
629.34	26.46
629.462	19.46
629.584	11.46
629.706	15.46
629.828	27.46
629.95	35.46
630.072	17.46
630.195	22.46
630.317	29.46
630.439	23.46
630.561	35.46
630.683	18.46
630.805	25.46
630.927	34.46
631.049	19.46
631.171	8.46
631.293	41.46
631.416	46.46
631.538	4.46
631.66	6.46
631.782	16.46
631.904	20.46
632.026	25.46
632.148	22.46
632.27	15.46
632.392	4.46
632.514	22.46
632.637	37.46
632.759	12.46
632.881	4.46
633.003	10.46
633.125	18.46
633.247	19.46
633.369	8.46
633.491	8.46
633.613	25.46
633.735	8.46
633.858	22.46
633.98	16.46
634.102	6.46
634.224	14.46
634.346	2.46
634.468	17.46
634.59	7.46
634.712	11.46
634.834	21.46
634.956	18.46
635.078	12.46
635.201	35.46
635.323	20.46
635.445	-4.54
635.567	-9.54
635.689	26.46
635.811	12.46
635.933	24.46
636.055	10.46
636.177	32.46
636.299	29.46
636.421	22.46
636.544	9.46
636.666	21.46
636.788	30.46
636.91	14.46
637.032	23.46
637.154	16.46
637.276	38.46
637.398	31.46
637.52	23.46
637.642	20.46
637.764	8.46
637.887	14.46
638.009	13.46
638.131	8.46
638.253	2.46
638.375	18.46
638.497	14.46
638.619	8.46
638.741	26.46
638.863	4.46
638.985	7.46
639.107	7.46
639.23	7.46
639.352	36.46
639.474	8.46
639.596	18.46
639.718	22.46
639.84	20.46
639.962	18.46
640.084	31.46
640.206	24.46
640.328	22.46
640.45	29.46
640.573	28.46
640.695	20.46
640.817	19.46
640.939	22.46
641.061	11.46
641.183	2.46
641.305	12.46
641.427	18.46
641.549	7.46
641.671	19.46
641.793	-5.54
641.915	20.46
642.038	23.46
642.16	24.46
642.282	13.46
642.404	11.46
642.526	17.46
642.648	3.46
642.77	15.46
642.892	9.46
643.014	23.46
643.136	37.46
643.258	10.46
643.381	24.46
643.503	36.46
643.625	9.46
643.747	8.46
643.869	7.46
643.991	12.46
644.113	16.46
644.235	21.46
644.357	31.46
644.479	40.46
644.601	16.46
644.723	27.46
644.846	15.46
644.968	15.46
645.09	12.46
645.212	15.46
645.334	28.46
645.456	40.46
645.578	34.46
645.7	17.46
645.822	12.46
645.944	17.46
646.066	19.46
646.188	17.46
646.311	38.46
646.433	14.46
646.555	27.46
646.677	14.46
646.799	12.46
646.921	10.46
647.043	16.46
647.165	7.46
647.287	15.46
647.409	10.46
647.531	12.46
647.654	-17.54
647.776	27.46
647.898	13.46
648.02	15.46
648.142	18.46
648.264	23.46
648.386	19.46
648.508	25.46
648.63	-3.54
648.752	2.46
648.874	4.46
648.997	12.46
649.119	31.46
649.241	9.46
649.363	26.46
649.485	35.46
649.607	6.46
649.729	6.46
649.851	19.46
649.973	12.46
650.095	19.46
650.217	7.46
650.34	16.46
650.462	27.46
650.584	22.46
650.706	30.46
650.828	44.46
650.95	22.46
651.072	16.46
651.194	4.46
651.316	19.46
651.438	23.46
651.56	13.46
651.683	6.46
651.805	17.46
651.927	-5.54
652.049	13.46
652.171	16.46
652.293	7.46
652.415	12.46
652.537	3.46
652.659	3.46
652.781	19.46
652.903	18.46
653.026	35.46
653.148	13.46
653.27	20.46
653.392	16.46
653.514	24.46
653.636	8.46
653.758	11.46
653.88	-3.54
654.002	10.46
654.124	3.46
654.247	1.46
654.369	26.46
654.491	15.46
654.613	16.46
654.735	22.46
654.857	18.46
654.979	11.46
655.101	30.46
655.223	41.46
655.345	20.46
655.468	23.46
655.59	15.46
655.712	19.46
655.834	13.46
655.956	25.46
656.078	14.46
656.2	6.46
656.322	10.46
656.444	-0.54
656.566	1.46
656.689	7.46
656.811	15.46
656.933	23.46
657.055	8.46
657.177	1.46
657.299	22.46
657.421	6.46
657.543	27.46
657.665	17.46
657.787	16.46
657.91	12.46
658.032	3.46
658.154	-0.54
658.276	27.46
658.398	8.46
658.52	26.46
658.642	14.46
658.764	28.46
658.886	-7.54
659.009	22.46
659.131	22.46
659.253	27.46
659.375	23.46
659.497	-1.54
659.619	27.46
659.741	16.46
659.863	16.46
659.985	-1.54
660.108	24.46
660.23	4.46
660.352	12.46
660.474	27.46
660.596	22.46
660.718	16.46
660.84	6.46
660.962	17.46
661.084	18.46
661.207	12.46
661.329	12.46
661.451	3.46
661.573	11.46
661.695	51.46
661.817	32.46
661.939	26.46
662.061	43.46
662.184	1.46
662.306	17.46
662.428	17.46
662.55	13.46
662.672	10.46
662.794	10.46
662.916	11.46
663.038	4.46
663.161	24.46
663.283	32.46
663.405	15.46
663.527	6.46
663.649	7.46
663.771	10.46
663.893	34.46
664.015	20.46
664.138	16.46
664.26	4.46
664.382	15.46
664.504	18.46
664.626	9.46
664.748	13.46
664.87	14.46
664.992	16.46
665.115	30.46
665.237	14.46
665.359	14.46
665.481	14.46
665.603	6.46
665.725	16.46
665.847	-18.54
665.97	15.46
666.092	15.46
666.214	21.46
666.336	-0.54
666.458	6.46
666.58	2.46
666.702	2.46
666.825	3.46
666.947	7.46
667.069	21.46
667.191	3.46
667.313	38.46
667.435	0.46
667.557	0.46
667.68	8.46
667.802	1.46
667.924	-2.54
668.046	26.46
668.168	24.46
668.29	34.46
668.412	14.46
668.535	12.46
668.657	14.46
668.779	-0.54
668.901	22.46
669.023	10.46
669.145	14.46
669.267	24.46
669.39	18.46
669.512	8.46
669.634	36.46
669.756	1.46
669.878	26.46
670	19.46
670.123	12.46
670.245	46.46
670.367	26.46
670.489	26.46
670.611	14.46
670.733	7.46
670.856	18.46
670.978	22.46
671.1	27.46
671.222	25.46
671.344	20.46
671.466	9.46
671.589	-13.54
671.711	-3.54
671.833	1.46
671.955	15.46
672.077	13.46
672.199	31.46
672.322	36.46
672.444	18.46
672.566	34.46
672.688	14.46
672.81	14.46
672.932	24.46
673.055	15.46
673.177	3.46
673.299	10.46
673.421	21.46
673.543	25.46
673.665	34.46
673.788	42.46
673.91	21.46
674.032	-5.54
674.154	17.46
674.276	11.46
674.399	11.46
674.521	12.46
674.643	23.46
674.765	-0.54
674.887	3.46
675.009	-1.54
675.132	-2.54
675.254	9.46
675.376	16.46
675.498	2.46
675.62	24.46
675.743	12.46
675.865	19.46
675.987	-2.54
676.109	-12.54
676.231	29.46
676.354	48.46
676.476	10.46
676.598	42.46
676.72	11.46
676.842	18.46
676.965	7.46
677.087	19.46
677.209	12.46
677.331	16.46
677.453	7.46
677.576	19.46
677.698	19.46
677.82	17.46
677.942	-1.54
678.064	13.46
678.187	26.46
678.309	19.46
678.431	0.46
678.553	25.46
678.675	19.46
678.798	22.46
678.92	12.46
679.042	1.46
679.164	18.46
679.286	24.46
679.409	11.46
679.531	-5.54
679.653	-2.54
679.775	9.46
679.898	-6.54
680.02	5.46
680.142	1.46
680.264	14.46
680.386	-3.54
680.509	18.46
680.631	13.46
680.753	18.46
680.875	6.46
680.998	31.46
681.12	14.46
681.242	16.46
681.364	3.46
681.486	20.46
681.609	2.46
681.731	4.46
681.853	-3.54
681.975	-13.54
682.098	22.46
682.22	31.46
682.342	1.46
682.464	10.46
682.587	3.46
682.709	7.46
682.831	0.46
682.953	2.46
683.076	7.46
683.198	28.46
683.32	22.46
683.442	15.46
683.565	14.46
683.687	-3.54
683.809	2.46
683.931	-6.54
684.054	17.46
684.176	12.46
684.298	26.46
684.42	11.46
684.543	11.46
684.665	13.46
684.787	3.46
684.909	-0.54
685.032	17.46
685.154	-11.54
685.276	10.46
685.398	-0.54
685.521	11.46
685.643	2.46
685.765	12.46
685.887	22.46
686.01	18.46
686.132	16.46
686.254	13.46
686.377	16.46
686.499	24.46
686.621	14.46
686.743	7.46
686.866	19.46
686.988	29.46
687.11	28.46
687.232	26.46
687.355	-0.54
687.477	16.46
687.599	11.46
687.722	8.46
687.844	0.46
687.966	20.46
688.088	18.46
688.211	43.46
688.333	16.46
688.455	24.46
688.578	17.46
688.7	20.46
688.822	7.46
688.944	19.46
689.067	55.46
689.189	8.46
689.311	-11.54
689.434	-8.54
689.556	0.46
689.678	12.46
689.801	10.46
689.923	15.46
690.045	28.46
690.167	33.46
690.29	22.46
690.412	9.46
690.534	9.46
690.657	7.46
690.779	15.46
690.901	29.46
691.024	10.46
691.146	11.46
691.268	6.46
691.391	31.46
691.513	22.46
691.635	24.46
691.758	28.46
691.88	27.46
692.002	-1.54
692.125	8.46
692.247	10.46
692.369	4.46
692.492	12.46
692.614	-1.54
692.736	10.46
692.859	15.46
692.981	-0.54
693.103	14.46
693.226	6.46
693.348	43.46
693.47	20.46
693.593	22.46
693.715	36.46
693.837	35.46
693.96	22.46
694.082	8.46
694.204	32.46
694.327	-2.54
694.449	-6.54
694.571	8.46
694.694	17.46
694.816	22.46
694.938	4.46
695.061	11.46
695.183	-4.54
695.305	16.46
695.428	20.46
695.55	13.46
695.672	5.46
695.795	15.46
695.917	38.46
696.04	9.46
696.162	8.46
696.284	7.46
696.407	10.46
696.529	16.46
696.651	33.46
696.774	7.46
696.896	27.46
697.019	19.46
697.141	19.46
697.263	3.46
697.386	16.46
697.508	18.46
697.63	20.46
697.753	9.46
697.875	26.46
697.998	7.46
698.12	20.46
698.242	11.46
698.365	21.46
698.487	10.46
698.61	29.46
698.732	11.46
698.854	20.46
698.977	22.46
699.099	12.46
699.221	11.46
699.344	6.46
699.466	3.46
699.589	20.46
699.711	5.46
699.834	2.46
699.956	15.46
700.078	29.46
700.201	1.46
700.323	22.46
700.446	6.46
700.568	9.46
700.69	27.46
700.813	17.46
700.935	19.46
701.058	26.46
701.18	6.46
701.302	7.46
701.425	7.46
701.547	11.46
701.67	13.46
701.792	11.46
701.915	-12.54
702.037	10.46
702.159	7.46
702.282	6.46
702.404	-5.54
702.527	11.46
702.649	36.46
702.772	25.46
702.894	15.46
703.017	19.46
703.139	14.46
703.261	17.46
703.384	36.46
703.506	8.46
703.629	17.46
703.751	12.46
703.874	-6.54
703.996	-10.54
704.119	-8.54
704.241	25.46
704.364	12.46
704.486	11.46
704.608	10.46
704.731	21.46
704.853	22.46
704.976	14.46
705.098	22.46
705.221	8.46
705.343	30.46
705.466	34.46
705.588	18.46
705.711	22.46
705.833	31.46
705.956	3.46
706.078	33.46
706.201	10.46
706.323	14.46
706.446	6.46
