Data from LowRes_mercury_15_20_11_07_2024_HR4C61881__48__15-23-37-071.txt Node

Date: Thu Nov 07 15:23:37 EST 2024
User: crc00042
Spectrometer: HR4C6188
Trigger mode: 4
Integration Time (sec): 1.000000E-1
Scans to average: 1
Electric dark correction enabled: true
Nonlinearity correction enabled: false
Boxcar width: 0
XAxis mode: Wavelengths
Number of Pixels in Spectrum: 3648
>>>>>Begin Spectral Data<<<<<
245.66	-56.54
245.797	-56.54
245.934	-56.54
246.071	-51.54
246.208	6.46
246.344	7.46
246.481	-23.54
246.618	-7.54
246.755	26.46
246.892	-13.54
247.029	-8.54
247.165	-15.54
247.302	0.46
247.439	-2.54
247.576	12.46
247.713	-5.54
247.849	33.46
247.986	-3.54
248.123	1.46
248.26	3.46
248.396	22.46
248.533	17.46
248.67	8.46
248.806	13.46
248.943	9.46
249.08	5.46
249.216	23.46
249.353	-6.54
249.49	5.46
249.626	7.46
249.763	15.46
249.9	-7.54
250.036	10.46
250.173	5.46
250.309	22.46
250.446	11.46
250.582	7.46
250.719	-11.54
250.856	9.46
250.992	17.46
251.129	19.46
251.265	13.46
251.402	13.46
251.538	3.46
251.675	13.46
251.811	21.46
251.948	31.46
252.084	10.46
252.221	7.46
252.357	-10.54
252.493	17.46
252.63	8.46
252.766	28.46
252.903	4.46
253.039	5.46
253.175	15.46
253.312	14.46
253.448	7.46
253.585	-12.54
253.721	15.46
253.857	-6.54
253.994	10.46
254.13	6.46
254.266	13.46
254.403	18.46
254.539	1.46
254.675	4.46
254.811	10.46
254.948	10.46
255.084	6.46
255.22	-7.54
255.356	10.46
255.493	14.46
255.629	17.46
255.765	16.46
255.901	7.46
256.037	11.46
256.174	15.46
256.31	7.46
256.446	23.46
256.582	11.46
256.718	5.46
256.854	11.46
256.991	11.46
257.127	22.46
257.263	9.46
257.399	21.46
257.535	4.46
257.671	14.46
257.807	-5.54
257.943	8.46
258.079	3.46
258.215	8.46
258.351	38.46
258.487	11.46
258.623	34.46
258.759	5.46
258.895	-0.54
259.031	7.46
259.167	-16.54
259.303	-0.54
259.439	13.46
259.575	-8.54
259.711	-4.54
259.847	8.46
259.983	12.46
260.119	6.46
260.255	5.46
260.391	8.46
260.527	6.46
260.663	14.46
260.799	9.46
260.934	-4.54
261.07	-2.54
261.206	-18.54
261.342	-14.54
261.478	7.46
261.614	19.46
261.749	-12.54
261.885	4.46
262.021	13.46
262.157	10.46
262.293	3.46
262.428	9.46
262.564	11.46
262.7	2.46
262.836	12.46
262.971	18.46
263.107	6.46
263.243	14.46
263.378	-1.54
263.514	-4.54
263.65	15.46
263.785	-9.54
263.921	-7.54
264.057	-15.54
264.192	5.46
264.328	13.46
264.464	-10.54
264.599	3.46
264.735	16.46
264.871	-3.54
265.006	19.46
265.142	3.46
265.277	19.46
265.413	23.46
265.548	23.46
265.684	19.46
265.819	0.46
265.955	-16.54
266.091	0.46
266.226	-5.54
266.362	8.46
266.497	31.46
266.633	15.46
266.768	-1.54
266.903	26.46
267.039	15.46
267.174	32.46
267.31	-2.54
267.445	-1.54
267.581	5.46
267.716	8.46
267.851	22.46
267.987	18.46
268.122	2.46
268.258	-1.54
268.393	9.46
268.528	19.46
268.664	12.46
268.799	-4.54
268.934	1.46
269.07	-2.54
269.205	14.46
269.34	44.46
269.476	-3.54
269.611	-6.54
269.746	22.46
269.881	3.46
270.017	37.46
270.152	10.46
270.287	10.46
270.422	5.46
270.558	-6.54
270.693	10.46
270.828	0.46
270.963	16.46
271.098	15.46
271.234	14.46
271.369	9.46
271.504	12.46
271.639	6.46
271.774	12.46
271.909	5.46
272.045	-5.54
272.18	-8.54
272.315	11.46
272.45	9.46
272.585	0.46
272.72	0.46
272.855	3.46
272.99	3.46
273.125	-4.54
273.26	-14.54
273.395	5.46
273.53	14.46
273.665	29.46
273.8	23.46
273.935	10.46
274.07	12.46
274.205	17.46
274.34	17.46
274.475	-1.54
274.61	17.46
274.745	1.46
274.88	30.46
275.015	15.46
275.15	11.46
275.285	12.46
275.42	21.46
275.555	15.46
275.69	25.46
275.825	19.46
275.959	11.46
276.094	-6.54
276.229	3.46
276.364	2.46
276.499	8.46
276.634	9.46
276.768	7.46
276.903	9.46
277.038	23.46
277.173	26.46
277.308	-2.54
277.442	8.46
277.577	-13.54
277.712	14.46
277.847	10.46
277.981	3.46
278.116	-3.54
278.251	15.46
278.386	16.46
278.52	11.46
278.655	5.46
278.79	24.46
278.924	5.46
279.059	23.46
279.194	2.46
279.328	34.46
279.463	38.46
279.598	29.46
279.732	15.46
279.867	20.46
280.001	20.46
280.136	28.46
280.271	15.46
280.405	1.46
280.54	2.46
280.674	3.46
280.809	29.46
280.943	8.46
281.078	11.46
281.213	39.46
281.347	28.46
281.482	4.46
281.616	18.46
281.751	-0.54
281.885	10.46
282.02	6.46
282.154	17.46
282.288	-13.54
282.423	-15.54
282.557	-2.54
282.692	23.46
282.826	7.46
282.961	10.46
283.095	10.46
283.229	14.46
283.364	-1.54
283.498	22.46
283.633	11.46
283.767	5.46
283.901	13.46
284.036	17.46
284.17	0.46
284.304	-1.54
284.439	7.46
284.573	-2.54
284.707	31.46
284.842	9.46
284.976	3.46
285.11	-8.54
285.244	29.46
285.379	68.46
285.513	9.46
285.647	6.46
285.781	0.46
285.916	28.46
286.05	5.46
286.184	21.46
286.318	26.46
286.453	1.46
286.587	-2.54
286.721	-8.54
286.855	-9.54
286.989	22.46
287.123	13.46
287.258	21.46
287.392	23.46
287.526	20.46
287.66	1.46
287.794	-0.54
287.928	16.46
288.062	36.46
288.196	0.46
288.33	9.46
288.464	24.46
288.598	25.46
288.733	33.46
288.867	25.46
289.001	10.46
289.135	5.46
289.269	-7.54
289.403	3.46
289.537	6.46
289.671	11.46
289.805	-18.54
289.939	2.46
290.073	8.46
290.207	27.46
290.34	1.46
290.474	9.46
290.608	14.46
290.742	-4.54
290.876	14.46
291.01	8.46
291.144	36.46
291.278	11.46
291.412	-0.54
291.546	0.46
291.679	-2.54
291.813	3.46
291.947	18.46
292.081	2.46
292.215	29.46
292.349	18.46
292.482	26.46
292.616	16.46
292.75	14.46
292.884	11.46
293.018	13.46
293.151	1.46
293.285	8.46
293.419	5.46
293.553	-2.54
293.686	3.46
293.82	2.46
293.954	24.46
294.088	45.46
294.221	26.46
294.355	-3.54
294.489	10.46
294.622	5.46
294.756	-12.54
294.89	0.46
295.023	20.46
295.157	4.46
295.291	17.46
295.424	20.46
295.558	3.46
295.691	1.46
295.825	21.46
295.959	0.46
296.092	10.46
296.226	-0.54
296.359	6.46
296.493	9.46
296.627	14.46
296.76	11.46
296.894	2.46
297.027	1.46
297.161	1.46
297.294	2.46
297.428	-3.54
297.561	41.46
297.695	4.46
297.828	-1.54
297.962	-20.54
298.095	-14.54
298.229	14.46
298.362	-5.54
298.495	1.46
298.629	3.46
298.762	-4.54
298.896	4.46
299.029	-1.54
299.162	20.46
299.296	7.46
299.429	4.46
299.563	-13.54
299.696	9.46
299.829	22.46
299.963	11.46
300.096	15.46
300.229	7.46
300.363	-0.54
300.496	-0.54
300.629	-10.54
300.763	3.46
300.896	15.46
301.029	9.46
301.162	-9.54
301.296	7.46
301.429	-13.54
301.562	1.46
301.695	28.46
301.829	10.46
301.962	26.46
302.095	2.46
302.228	-11.54
302.362	23.46
302.495	1.46
302.628	7.46
302.761	-3.54
302.894	9.46
303.027	29.46
303.161	5.46
303.294	-5.54
303.427	7.46
303.56	10.46
303.693	-7.54
303.826	4.46
303.959	17.46
304.092	15.46
304.225	-4.54
304.359	18.46
304.492	16.46
304.625	10.46
304.758	27.46
304.891	5.46
305.024	13.46
305.157	10.46
305.29	-1.54
305.423	6.46
305.556	12.46
305.689	26.46
305.822	17.46
305.955	5.46
306.088	-1.54
306.221	-2.54
306.354	-7.54
306.487	5.46
306.62	2.46
306.752	4.46
306.885	2.46
307.018	-13.54
307.151	28.46
307.284	22.46
307.417	-8.54
307.55	10.46
307.683	11.46
307.816	25.46
307.948	14.46
308.081	7.46
308.214	15.46
308.347	28.46
308.48	5.46
308.613	1.46
308.745	18.46
308.878	-0.54
309.011	14.46
309.144	27.46
309.277	11.46
309.409	12.46
309.542	-1.54
309.675	26.46
309.808	13.46
309.94	22.46
310.073	5.46
310.206	13.46
310.339	22.46
310.471	-20.54
310.604	12.46
310.737	-4.54
310.869	6.46
311.002	7.46
311.135	18.46
311.267	-21.54
311.4	6.46
311.533	30.46
311.665	7.46
311.798	3.46
311.93	20.46
312.063	18.46
312.196	35.46
312.328	81.46
312.461	62.46
312.593	35.46
312.726	57.46
312.859	114.46
312.991	169.46
313.124	55.46
313.256	20.46
313.389	9.46
313.521	0.46
313.654	18.46
313.786	1.46
313.919	13.46
314.051	36.46
314.184	13.46
314.316	3.46
314.449	-14.54
314.581	-2.54
314.714	-3.54
314.846	22.46
314.978	-4.54
315.111	5.46
315.243	28.46
315.376	15.46
315.508	14.46
315.641	13.46
315.773	20.46
315.905	2.46
316.038	-8.54
316.17	23.46
316.302	22.46
316.435	22.46
316.567	31.46
316.699	30.46
316.832	-1.54
316.964	4.46
317.096	1.46
317.229	6.46
317.361	-12.54
317.493	-2.54
317.625	4.46
317.758	9.46
317.89	20.46
318.022	21.46
318.155	0.46
318.287	11.46
318.419	-1.54
318.551	-5.54
318.683	16.46
318.816	13.46
318.948	7.46
319.08	-9.54
319.212	6.46
319.344	18.46
319.477	8.46
319.609	13.46
319.741	9.46
319.873	18.46
320.005	-2.54
320.137	21.46
320.269	8.46
320.401	11.46
320.534	13.46
320.666	4.46
320.798	6.46
320.93	-8.54
321.062	-12.54
321.194	18.46
321.326	16.46
321.458	19.46
321.59	9.46
321.722	10.46
321.854	7.46
321.986	6.46
322.118	17.46
322.25	5.46
322.382	-19.54
322.514	9.46
322.646	5.46
322.778	25.46
322.91	5.46
323.042	23.46
323.174	6.46
323.306	-9.54
323.438	-18.54
323.57	2.46
323.702	-5.54
323.834	2.46
323.966	-4.54
324.097	12.46
324.229	-0.54
324.361	7.46
324.493	19.46
324.625	10.46
324.757	22.46
324.889	17.46
325.021	21.46
325.152	27.46
325.284	15.46
325.416	7.46
325.548	35.46
325.68	17.46
325.811	19.46
325.943	29.46
326.075	7.46
326.207	16.46
326.339	11.46
326.47	6.46
326.602	22.46
326.734	20.46
326.866	41.46
326.997	7.46
327.129	9.46
327.261	-2.54
327.392	11.46
327.524	7.46
327.656	16.46
327.787	8.46
327.919	23.46
328.051	34.46
328.182	25.46
328.314	38.46
328.446	12.46
328.577	16.46
328.709	16.46
328.841	8.46
328.972	-4.54
329.104	2.46
329.235	3.46
329.367	1.46
329.499	14.46
329.63	10.46
329.762	14.46
329.893	3.46
330.025	4.46
330.156	-7.54
330.288	-0.54
330.419	6.46
330.551	24.46
330.683	11.46
330.814	-1.54
330.946	31.46
331.077	0.46
331.208	17.46
331.34	11.46
331.471	-1.54
331.603	24.46
331.734	-9.54
331.866	3.46
331.997	21.46
332.129	4.46
332.26	11.46
332.392	22.46
332.523	18.46
332.654	13.46
332.786	9.46
332.917	18.46
333.048	26.46
333.18	18.46
333.311	10.46
333.443	5.46
333.574	17.46
333.705	35.46
333.837	49.46
333.968	128.46
334.099	225.46
334.231	203.46
334.362	46.46
334.493	27.46
334.624	14.46
334.756	34.46
334.887	23.46
335.018	32.46
335.15	25.46
335.281	31.46
335.412	21.46
335.543	13.46
335.675	4.46
335.806	23.46
335.937	22.46
336.068	28.46
336.199	29.46
336.331	7.46
336.462	12.46
336.593	30.46
336.724	20.46
336.855	0.46
336.986	18.46
337.118	39.46
337.249	5.46
337.38	35.46
337.511	25.46
337.642	40.46
337.773	19.46
337.904	13.46
338.035	16.46
338.166	23.46
338.298	15.46
338.429	20.46
338.56	38.46
338.691	21.46
338.822	5.46
338.953	24.46
339.084	18.46
339.215	27.46
339.346	27.46
339.477	33.46
339.608	16.46
339.739	20.46
339.87	29.46
340.001	28.46
340.132	22.46
340.263	10.46
340.394	12.46
340.525	25.46
340.656	3.46
340.787	-5.54
340.918	17.46
341.049	15.46
341.179	21.46
341.31	29.46
341.441	32.46
341.572	30.46
341.703	18.46
341.834	4.46
341.965	37.46
342.096	23.46
342.227	21.46
342.357	22.46
342.488	8.46
342.619	24.46
342.75	23.46
342.881	7.46
343.012	39.46
343.142	49.46
343.273	11.46
343.404	15.46
343.535	51.46
343.666	39.46
343.796	33.46
343.927	21.46
344.058	22.46
344.189	38.46
344.319	47.46
344.45	42.46
344.581	42.46
344.712	6.46
344.842	17.46
344.973	29.46
345.104	49.46
345.234	30.46
345.365	16.46
345.496	29.46
345.626	26.46
345.757	35.46
345.888	21.46
346.018	30.46
346.149	34.46
346.28	36.46
346.41	31.46
346.541	33.46
346.672	19.46
346.802	36.46
346.933	40.46
347.063	14.46
347.194	20.46
347.325	21.46
347.455	48.46
347.586	29.46
347.716	-0.54
347.847	31.46
347.977	33.46
348.108	50.46
348.238	48.46
348.369	34.46
348.499	47.46
348.63	45.46
348.76	38.46
348.891	60.46
349.021	73.46
349.152	72.46
349.282	64.46
349.413	46.46
349.543	53.46
349.674	23.46
349.804	44.46
349.935	17.46
350.065	25.46
350.196	38.46
350.326	51.46
350.456	25.46
350.587	22.46
350.717	33.46
350.848	35.46
350.978	25.46
351.108	15.46
351.239	36.46
351.369	23.46
351.499	20.46
351.63	30.46
351.76	22.46
351.89	26.46
352.021	13.46
352.151	3.46
352.281	23.46
352.412	31.46
352.542	36.46
352.672	33.46
352.803	24.46
352.933	28.46
353.063	25.46
353.193	27.46
353.324	14.46
353.454	35.46
353.584	32.46
353.714	27.46
353.845	39.46
353.975	27.46
354.105	18.46
354.235	33.46
354.365	14.46
354.496	16.46
354.626	32.46
354.756	33.46
354.886	21.46
355.016	27.46
355.146	18.46
355.277	38.46
355.407	8.46
355.537	48.46
355.667	31.46
355.797	22.46
355.927	9.46
356.057	19.46
356.187	14.46
356.318	15.46
356.448	46.46
356.578	45.46
356.708	27.46
356.838	18.46
356.968	25.46
357.098	26.46
357.228	43.46
357.358	24.46
357.488	36.46
357.618	53.46
357.748	53.46
357.878	25.46
358.008	18.46
358.138	18.46
358.268	18.46
358.398	36.46
358.528	11.46
358.658	43.46
358.788	32.46
358.918	48.46
359.048	25.46
359.178	43.46
359.308	48.46
359.438	51.46
359.568	29.46
359.698	36.46
359.827	38.46
359.957	39.46
360.087	33.46
360.217	41.46
360.347	39.46
360.477	44.46
360.607	28.46
360.737	42.46
360.866	34.46
360.996	35.46
361.126	27.46
361.256	43.46
361.386	38.46
361.516	33.46
361.645	20.46
361.775	38.46
361.905	28.46
362.035	54.46
362.165	38.46
362.294	53.46
362.424	47.46
362.554	52.46
362.684	21.46
362.813	47.46
362.943	58.46
363.073	42.46
363.203	67.46
363.332	65.46
363.462	69.46
363.592	94.46
363.721	119.46
363.851	162.46
363.981	217.46
364.111	258.46
364.24	334.46
364.37	492.46
364.5	853.46
364.629	1767.46
364.759	3780.46
364.888	6222.46
365.018	9273.46
365.148	14748.46
365.277	12756.46
365.407	4699.46
365.537	3030.46
365.666	3938.46
365.796	1784.46
365.925	795.46
366.055	758.46
366.184	1040.46
366.314	1381.46
366.444	2452.46
366.573	2141.46
366.703	663.46
366.832	214.46
366.962	103.46
367.091	89.46
367.221	87.46
367.35	66.46
367.48	86.46
367.609	59.46
367.739	59.46
367.868	50.46
367.998	61.46
368.127	64.46
368.257	52.46
368.386	54.46
368.516	64.46
368.645	53.46
368.775	53.46
368.904	47.46
369.033	40.46
369.163	35.46
369.292	44.46
369.422	43.46
369.551	62.46
369.68	62.46
369.81	42.46
369.939	25.46
370.069	54.46
370.198	47.46
370.327	21.46
370.457	42.46
370.586	51.46
370.715	18.46
370.845	22.46
370.974	48.46
371.103	67.46
371.233	52.46
371.362	64.46
371.491	39.46
371.621	59.46
371.75	53.46
371.879	55.46
372.008	50.46
372.138	68.46
372.267	49.46
372.396	45.46
372.525	36.46
372.655	27.46
372.784	22.46
372.913	29.46
373.042	34.46
373.172	33.46
373.301	-0.54
373.43	19.46
373.559	23.46
373.688	38.46
373.818	43.46
373.947	34.46
374.076	19.46
374.205	30.46
374.334	12.46
374.463	16.46
374.593	32.46
374.722	13.46
374.851	36.46
374.98	25.46
375.109	19.46
375.238	36.46
375.367	32.46
375.496	11.46
375.625	7.46
375.755	34.46
375.884	35.46
376.013	47.46
376.142	9.46
376.271	33.46
376.4	35.46
376.529	51.46
376.658	22.46
376.787	24.46
376.916	29.46
377.045	19.46
377.174	18.46
377.303	24.46
377.432	34.46
377.561	20.46
377.69	20.46
377.819	49.46
377.948	24.46
378.077	33.46
378.206	13.46
378.335	19.46
378.464	30.46
378.593	40.46
378.722	14.46
378.851	11.46
378.98	43.46
379.108	-0.54
379.237	9.46
379.366	40.46
379.495	25.46
379.624	27.46
379.753	27.46
379.882	22.46
380.011	-8.54
380.14	13.46
380.268	28.46
380.397	23.46
380.526	57.46
380.655	7.46
380.784	-2.54
380.913	13.46
381.041	13.46
381.17	22.46
381.299	19.46
381.428	17.46
381.557	22.46
381.685	23.46
381.814	6.46
381.943	33.46
382.072	-6.54
382.2	27.46
382.329	21.46
382.458	12.46
382.587	24.46
382.715	34.46
382.844	30.46
382.973	38.46
383.102	29.46
383.23	13.46
383.359	17.46
383.488	29.46
383.616	21.46
383.745	11.46
383.874	21.46
384.003	10.46
384.131	29.46
384.26	18.46
384.389	36.46
384.517	10.46
384.646	22.46
384.774	17.46
384.903	36.46
385.032	45.46
385.16	12.46
385.289	27.46
385.418	28.46
385.546	35.46
385.675	38.46
385.803	18.46
385.932	31.46
386.06	15.46
386.189	29.46
386.318	44.46
386.446	20.46
386.575	29.46
386.703	39.46
386.832	17.46
386.96	24.46
387.089	29.46
387.217	0.46
387.346	15.46
387.474	16.46
387.603	36.46
387.731	29.46
387.86	42.46
387.988	25.46
388.117	16.46
388.245	2.46
388.374	16.46
388.502	43.46
388.631	17.46
388.759	10.46
388.888	20.46
389.016	29.46
389.144	21.46
389.273	24.46
389.401	17.46
389.53	7.46
389.658	35.46
389.786	26.46
389.915	5.46
390.043	27.46
390.172	20.46
390.3	58.46
390.428	55.46
390.557	36.46
390.685	36.46
390.813	39.46
390.942	63.46
391.07	29.46
391.198	27.46
391.327	21.46
391.455	9.46
391.583	52.46
391.712	29.46
391.84	28.46
391.968	34.46
392.096	22.46
392.225	31.46
392.353	31.46
392.481	43.46
392.609	42.46
392.738	38.46
392.866	43.46
392.994	22.46
393.122	38.46
393.251	19.46
393.379	26.46
393.507	20.46
393.635	22.46
393.764	51.46
393.892	44.46
394.02	17.46
394.148	22.46
394.276	33.46
394.404	53.46
394.533	38.46
394.661	41.46
394.789	57.46
394.917	52.46
395.045	19.46
395.173	21.46
395.302	24.46
395.43	37.46
395.558	56.46
395.686	38.46
395.814	30.46
395.942	25.46
396.07	23.46
396.198	34.46
396.326	47.46
396.454	51.46
396.582	58.46
396.711	28.46
396.839	43.46
396.967	39.46
397.095	42.46
397.223	55.46
397.351	59.46
397.479	55.46
397.607	20.46
397.735	53.46
397.863	65.46
397.991	58.46
398.119	53.46
398.247	51.46
398.375	50.46
398.503	49.46
398.631	66.46
398.759	59.46
398.887	51.46
399.015	44.46
399.143	52.46
399.271	87.46
399.399	80.46
399.526	79.46
399.654	92.46
399.782	48.46
399.91	103.46
400.038	102.46
400.166	102.46
400.294	99.46
400.422	91.46
400.55	112.46
400.678	109.46
400.805	119.46
400.933	115.46
401.061	130.46
401.189	134.46
401.317	140.46
401.445	107.46
401.573	102.46
401.7	64.46
401.828	61.46
401.956	50.46
402.084	47.46
402.212	30.46
402.34	33.46
402.467	43.46
402.595	41.46
402.723	38.46
402.851	45.46
402.978	74.46
403.106	95.46
403.234	92.46
403.362	112.46
403.489	113.46
403.617	154.46
403.745	188.46
403.873	267.46
404	545.46
404.128	1440.46
404.256	3857.46
404.384	5022.46
404.511	5383.46
404.639	7019.46
404.767	11281.46
404.894	14521.46
405.022	4867.46
405.15	1266.46
405.277	432.46
405.405	246.46
405.533	139.46
405.66	123.46
405.788	44.46
405.916	57.46
406.043	48.46
406.171	68.46
406.299	77.46
406.426	67.46
406.554	53.46
406.681	66.46
406.809	59.46
406.937	72.46
407.064	69.46
407.192	143.46
407.319	291.46
407.447	527.46
407.574	543.46
407.702	613.46
407.83	856.46
407.957	1601.46
408.085	922.46
408.212	277.46
408.34	108.46
408.467	41.46
408.595	22.46
408.722	53.46
408.85	62.46
408.977	39.46
409.105	41.46
409.232	53.46
409.36	36.46
409.487	27.46
409.615	33.46
409.742	47.46
409.87	38.46
409.997	43.46
410.125	49.46
410.252	53.46
410.379	12.46
410.507	31.46
410.634	8.46
410.762	26.46
410.889	40.46
411.017	33.46
411.144	38.46
411.271	28.46
411.399	47.46
411.526	41.46
411.653	32.46
411.781	56.46
411.908	43.46
412.036	23.46
412.163	48.46
412.29	44.46
412.418	28.46
412.545	43.46
412.672	31.46
412.8	59.46
412.927	42.46
413.054	45.46
413.182	36.46
413.309	27.46
413.436	25.46
413.564	43.46
413.691	40.46
413.818	54.46
413.945	25.46
414.073	22.46
414.2	32.46
414.327	47.46
414.454	37.46
414.582	33.46
414.709	23.46
414.836	13.46
414.963	32.46
415.091	55.46
415.218	33.46
415.345	36.46
415.472	34.46
415.6	20.46
415.727	41.46
415.854	36.46
415.981	36.46
416.108	44.46
416.236	52.46
416.363	39.46
416.49	13.46
416.617	46.46
416.744	48.46
416.871	21.46
416.998	28.46
417.126	22.46
417.253	24.46
417.38	30.46
417.507	13.46
417.634	17.46
417.761	32.46
417.888	48.46
418.015	29.46
418.143	51.46
418.27	52.46
418.397	44.46
418.524	33.46
418.651	21.46
418.778	39.46
418.905	56.46
419.032	50.46
419.159	47.46
419.286	59.46
419.413	54.46
419.54	78.46
419.667	50.46
419.794	37.46
419.921	57.46
420.048	57.46
420.175	69.46
420.302	44.46
420.429	58.46
420.556	34.46
420.683	34.46
420.81	69.46
420.937	83.46
421.064	99.46
421.191	61.46
421.318	79.46
421.445	92.46
421.572	51.46
421.699	65.46
421.826	49.46
421.953	36.46
422.08	51.46
422.207	14.46
422.334	3.46
422.461	37.46
422.588	14.46
422.714	39.46
422.841	30.46
422.968	37.46
423.095	27.46
423.222	24.46
423.349	41.46
423.476	41.46
423.603	12.46
423.729	24.46
423.856	19.46
423.983	32.46
424.11	28.46
424.237	21.46
424.364	15.46
424.491	27.46
424.617	23.46
424.744	42.46
424.871	25.46
424.998	20.46
425.125	13.46
425.251	43.46
425.378	11.46
425.505	24.46
425.632	19.46
425.758	11.46
425.885	34.46
426.012	31.46
426.139	43.46
426.266	32.46
426.392	30.46
426.519	50.46
426.646	25.46
426.772	33.46
426.899	17.46
427.026	22.46
427.153	21.46
427.279	42.46
427.406	38.46
427.533	24.46
427.659	30.46
427.786	33.46
427.913	44.46
428.039	34.46
428.166	21.46
428.293	30.46
428.419	39.46
428.546	39.46
428.673	21.46
428.799	22.46
428.926	31.46
429.053	37.46
429.179	40.46
429.306	29.46
429.433	34.46
429.559	51.46
429.686	29.46
429.812	29.46
429.939	19.46
430.066	42.46
430.192	22.46
430.319	22.46
430.445	35.46
430.572	30.46
430.699	36.46
430.825	29.46
430.952	39.46
431.078	32.46
431.205	36.46
431.331	36.46
431.458	44.46
431.584	42.46
431.711	21.46
431.837	27.46
431.964	42.46
432.09	33.46
432.217	16.46
432.343	20.46
432.47	43.46
432.596	23.46
432.723	23.46
432.849	22.46
432.976	43.46
433.102	39.46
433.229	35.46
433.355	64.46
433.482	95.46
433.608	112.46
433.735	129.46
433.861	113.46
433.987	171.46
434.114	195.46
434.24	173.46
434.367	225.46
434.493	223.46
434.62	293.46
434.746	394.46
434.872	613.46
434.999	807.46
435.125	1708.46
435.252	5438.46
435.378	13300.46
435.504	15143.46
435.631	15344.46
435.757	15688.46
435.883	15688.46
436.01	15688.46
436.136	15688.46
436.262	15688.46
436.389	3408.46
436.515	1867.46
436.641	755.46
436.768	620.46
436.894	387.46
437.02	380.46
437.147	285.46
437.273	291.46
437.399	229.46
437.526	238.46
437.652	164.46
437.778	194.46
437.904	154.46
438.031	156.46
438.157	134.46
438.283	160.46
438.409	129.46
438.536	117.46
438.662	148.46
438.788	148.46
438.914	122.46
439.041	126.46
439.167	115.46
439.293	103.46
439.419	100.46
439.546	97.46
439.672	92.46
439.798	91.46
439.924	80.46
440.05	94.46
440.177	92.46
440.303	81.46
440.429	60.46
440.555	68.46
440.681	81.46
440.807	89.46
440.934	62.46
441.06	59.46
441.186	55.46
441.312	70.46
441.438	78.46
441.564	77.46
441.69	78.46
441.816	58.46
441.943	51.46
442.069	64.46
442.195	54.46
442.321	58.46
442.447	29.46
442.573	39.46
442.699	51.46
442.825	52.46
442.951	35.46
443.077	52.46
443.203	66.46
443.33	45.46
443.456	25.46
443.582	45.46
443.708	30.46
443.834	57.46
443.96	47.46
444.086	44.46
444.212	64.46
444.338	65.46
444.464	61.46
444.59	63.46
444.716	63.46
444.842	57.46
444.968	40.46
445.094	44.46
445.22	33.46
445.346	29.46
445.472	46.46
445.598	62.46
445.724	35.46
445.85	48.46
445.976	58.46
446.102	52.46
446.228	77.46
446.354	49.46
446.48	31.46
446.605	43.46
446.731	42.46
446.857	42.46
446.983	58.46
447.109	56.46
447.235	47.46
447.361	34.46
447.487	29.46
447.613	56.46
447.739	38.46
447.865	35.46
447.99	48.46
448.116	38.46
448.242	37.46
448.368	30.46
448.494	16.46
448.62	33.46
448.746	36.46
448.872	16.46
448.997	5.46
449.123	21.46
449.249	39.46
449.375	45.46
449.501	8.46
449.627	16.46
449.752	50.46
449.878	21.46
450.004	14.46
450.13	35.46
450.256	25.46
450.381	36.46
450.507	28.46
450.633	43.46
450.759	34.46
450.884	25.46
451.01	46.46
451.136	17.46
451.262	20.46
451.388	39.46
451.513	31.46
451.639	36.46
451.765	29.46
451.89	31.46
452.016	34.46
452.142	29.46
452.268	36.46
452.393	25.46
452.519	31.46
452.645	36.46
452.771	34.46
452.896	16.46
453.022	34.46
453.148	39.46
453.273	39.46
453.399	44.46
453.525	31.46
453.65	21.46
453.776	44.46
453.902	44.46
454.027	47.46
454.153	61.46
454.279	43.46
454.404	42.46
454.53	45.46
454.656	56.46
454.781	18.46
454.907	41.46
455.032	26.46
455.158	48.46
455.284	58.46
455.409	49.46
455.535	29.46
455.66	38.46
455.786	45.46
455.912	31.46
456.037	17.46
456.163	25.46
456.288	37.46
456.414	15.46
456.539	15.46
456.665	45.46
456.791	20.46
456.916	23.46
457.042	24.46
457.167	18.46
457.293	31.46
457.418	27.46
457.544	33.46
457.669	39.46
457.795	25.46
457.92	46.46
458.046	30.46
458.171	35.46
458.297	36.46
458.422	42.46
458.548	21.46
458.673	40.46
458.799	26.46
458.924	19.46
459.05	35.46
459.175	26.46
459.301	38.46
459.426	20.46
459.552	15.46
459.677	16.46
459.803	48.46
459.928	44.46
460.053	23.46
460.179	31.46
460.304	48.46
460.43	19.46
460.555	15.46
460.681	18.46
460.806	26.46
460.931	26.46
461.057	46.46
461.182	36.46
461.308	35.46
461.433	29.46
461.558	33.46
461.684	33.46
461.809	50.46
461.934	28.46
462.06	21.46
462.185	29.46
462.311	27.46
462.436	26.46
462.561	32.46
462.687	25.46
462.812	11.46
462.937	10.46
463.063	13.46
463.188	13.46
463.313	26.46
463.439	35.46
463.564	23.46
463.689	27.46
463.814	52.46
463.94	31.46
464.065	24.46
464.19	33.46
464.316	18.46
464.441	10.46
464.566	12.46
464.692	18.46
464.817	28.46
464.942	14.46
465.067	37.46
465.193	1.46
465.318	20.46
465.443	25.46
465.568	35.46
465.694	30.46
465.819	33.46
465.944	38.46
466.069	29.46
466.194	28.46
466.32	44.46
466.445	52.46
466.57	31.46
466.695	29.46
466.82	33.46
466.946	26.46
467.071	34.46
467.196	33.46
467.321	43.46
467.446	36.46
467.572	35.46
467.697	37.46
467.822	43.46
467.947	41.46
468.072	29.46
468.197	52.46
468.323	36.46
468.448	37.46
468.573	23.46
468.698	41.46
468.823	49.46
468.948	58.46
469.073	31.46
469.198	32.46
469.324	40.46
469.449	22.46
469.574	52.46
469.699	51.46
469.824	32.46
469.949	31.46
470.074	40.46
470.199	63.46
470.324	47.46
470.449	52.46
470.574	48.46
470.7	17.46
470.825	41.46
470.95	49.46
471.075	26.46
471.2	57.46
471.325	55.46
471.45	40.46
471.575	30.46
471.7	39.46
471.825	27.46
471.95	35.46
472.075	23.46
472.2	47.46
472.325	48.46
472.45	43.46
472.575	10.46
472.7	33.46
472.825	43.46
472.95	36.46
473.075	35.46
473.2	39.46
473.325	51.46
473.45	33.46
473.575	42.46
473.7	33.46
473.825	17.46
473.95	30.46
474.075	59.46
474.2	23.46
474.325	9.46
474.45	38.46
474.574	29.46
474.699	39.46
474.824	45.46
474.949	16.46
475.074	31.46
475.199	31.46
475.324	24.46
475.449	20.46
475.574	28.46
475.699	13.46
475.824	33.46
475.949	28.46
476.073	10.46
476.198	8.46
476.323	33.46
476.448	46.46
476.573	33.46
476.698	39.46
476.823	20.46
476.947	30.46
477.072	40.46
477.197	22.46
477.322	7.46
477.447	4.46
477.572	30.46
477.697	19.46
477.821	21.46
477.946	43.46
478.071	41.46
478.196	39.46
478.321	43.46
478.445	34.46
478.57	27.46
478.695	26.46
478.82	26.46
478.945	39.46
479.069	23.46
479.194	18.46
479.319	24.46
479.444	47.46
479.569	27.46
479.693	34.46
479.818	18.46
479.943	31.46
480.068	31.46
480.192	27.46
480.317	25.46
480.442	25.46
480.567	41.46
480.691	29.46
480.816	16.46
480.941	13.46
481.066	34.46
481.19	27.46
481.315	27.46
481.44	1.46
481.564	15.46
481.689	44.46
481.814	44.46
481.938	24.46
482.063	18.46
482.188	12.46
482.313	31.46
482.437	11.46
482.562	16.46
482.687	24.46
482.811	15.46
482.936	4.46
483.061	34.46
483.185	15.46
483.31	27.46
483.435	20.46
483.559	40.46
483.684	38.46
483.808	54.46
483.933	29.46
484.058	14.46
484.182	8.46
484.307	30.46
484.432	32.46
484.556	17.46
484.681	13.46
484.805	31.46
484.93	18.46
485.055	21.46
485.179	54.46
485.304	34.46
485.428	26.46
485.553	32.46
485.678	9.46
485.802	22.46
485.927	38.46
486.051	42.46
486.176	31.46
486.3	2.46
486.425	28.46
486.549	25.46
486.674	46.46
486.799	28.46
486.923	47.46
487.048	21.46
487.172	13.46
487.297	35.46
487.421	13.46
487.546	30.46
487.67	46.46
487.795	21.46
487.919	26.46
488.044	47.46
488.168	39.46
488.293	22.46
488.417	35.46
488.542	27.46
488.666	37.46
488.791	29.46
488.915	35.46
489.04	37.46
489.164	37.46
489.289	52.46
489.413	17.46
489.538	41.46
489.662	29.46
489.786	14.46
489.911	23.46
490.035	24.46
490.16	20.46
490.284	21.46
490.409	5.46
490.533	23.46
490.658	44.46
490.782	27.46
490.906	61.46
491.031	105.46
491.155	147.46
491.28	150.46
491.404	176.46
491.528	251.46
491.653	170.46
491.777	57.46
491.902	18.46
492.026	48.46
492.15	47.46
492.275	64.46
492.399	35.46
492.524	22.46
492.648	34.46
492.772	37.46
492.897	34.46
493.021	17.46
493.145	35.46
493.27	40.46
493.394	21.46
493.518	24.46
493.643	24.46
493.767	47.46
493.891	13.46
494.016	27.46
494.14	31.46
494.264	13.46
494.389	27.46
494.513	21.46
494.637	19.46
494.762	24.46
494.886	48.46
495.01	29.46
495.134	32.46
495.259	36.46
495.383	23.46
495.507	32.46
495.632	43.46
495.756	59.46
495.88	30.46
496.004	32.46
496.129	26.46
496.253	38.46
496.377	22.46
496.501	37.46
496.626	28.46
496.75	25.46
496.874	29.46
496.998	17.46
497.123	55.46
497.247	17.46
497.371	26.46
497.495	22.46
497.62	18.46
497.744	25.46
497.868	24.46
497.992	16.46
498.116	28.46
498.241	34.46
498.365	25.46
498.489	20.46
498.613	45.46
498.737	30.46
498.862	32.46
498.986	23.46
499.11	22.46
499.234	25.46
499.358	23.46
499.482	27.46
499.607	35.46
499.731	39.46
499.855	54.46
499.979	37.46
500.103	42.46
500.227	64.46
500.351	43.46
500.476	14.46
500.6	30.46
500.724	31.46
500.848	16.46
500.972	22.46
501.096	36.46
501.22	33.46
501.344	22.46
501.469	15.46
501.593	23.46
501.717	33.46
501.841	21.46
501.965	53.46
502.089	25.46
502.213	39.46
502.337	24.46
502.461	23.46
502.585	17.46
502.709	37.46
502.834	16.46
502.958	12.46
503.082	13.46
503.206	23.46
503.33	34.46
503.454	53.46
503.578	42.46
503.702	38.46
503.826	16.46
503.95	31.46
504.074	35.46
504.198	12.46
504.322	15.46
504.446	14.46
504.57	42.46
504.694	13.46
504.818	32.46
504.942	55.46
505.066	45.46
505.19	25.46
505.314	30.46
505.438	27.46
505.562	26.46
505.686	34.46
505.81	22.46
505.934	36.46
506.058	38.46
506.182	31.46
506.306	16.46
506.43	26.46
506.554	36.46
506.678	29.46
506.802	10.46
506.926	32.46
507.05	30.46
507.174	49.46
507.298	32.46
507.422	25.46
507.546	33.46
507.67	45.46
507.794	1.46
507.918	23.46
508.042	40.46
508.165	31.46
508.289	22.46
508.413	35.46
508.537	20.46
508.661	30.46
508.785	30.46
508.909	30.46
509.033	28.46
509.157	39.46
509.281	36.46
509.405	35.46
509.528	54.46
509.652	57.46
509.776	33.46
509.9	43.46
510.024	34.46
510.148	44.46
510.272	43.46
510.396	42.46
510.519	28.46
510.643	52.46
510.767	40.46
510.891	56.46
511.015	33.46
511.139	49.46
511.263	45.46
511.386	31.46
511.51	40.46
511.634	55.46
511.758	49.46
511.882	28.46
512.006	45.46
512.129	48.46
512.253	82.46
512.377	74.46
512.501	102.46
512.625	95.46
512.748	91.46
512.872	70.46
512.996	53.46
513.12	60.46
513.244	62.46
513.367	88.46
513.491	77.46
513.615	75.46
513.739	78.46
513.862	61.46
513.986	86.46
514.11	109.46
514.234	91.46
514.358	102.46
514.481	108.46
514.605	110.46
514.729	120.46
514.853	110.46
514.976	101.46
515.1	101.46
515.224	94.46
515.348	97.46
515.471	73.46
515.595	107.46
515.719	129.46
515.842	219.46
515.966	267.46
516.09	296.46
516.214	274.46
516.337	318.46
516.461	225.46
516.585	82.46
516.708	65.46
516.832	42.46
516.956	40.46
517.08	19.46
517.203	18.46
517.327	34.46
517.451	52.46
517.574	21.46
517.698	31.46
517.822	18.46
517.945	29.46
518.069	10.46
518.193	44.46
518.316	17.46
518.44	49.46
518.564	29.46
518.687	22.46
518.811	34.46
518.935	47.46
519.058	30.46
519.182	25.46
519.306	27.46
519.429	17.46
519.553	58.46
519.676	47.46
519.8	26.46
519.924	29.46
520.047	32.46
520.171	25.46
520.294	30.46
520.418	32.46
520.542	21.46
520.665	34.46
520.789	29.46
520.913	14.46
521.036	1.46
521.16	13.46
521.283	18.46
521.407	19.46
521.53	22.46
521.654	12.46
521.778	25.46
521.901	28.46
522.025	1.46
522.148	15.46
522.272	15.46
522.395	41.46
522.519	39.46
522.643	33.46
522.766	29.46
522.89	20.46
523.013	37.46
523.137	6.46
523.26	21.46
523.384	31.46
523.507	29.46
523.631	11.46
523.754	0.46
523.878	24.46
524.002	23.46
524.125	27.46
524.249	10.46
524.372	27.46
524.496	37.46
524.619	40.46
524.743	13.46
524.866	11.46
524.99	35.46
525.113	19.46
525.237	28.46
525.36	39.46
525.484	29.46
525.607	17.46
525.731	2.46
525.854	39.46
525.978	44.46
526.101	32.46
526.224	22.46
526.348	33.46
526.471	37.46
526.595	22.46
526.718	10.46
526.842	18.46
526.965	26.46
527.089	38.46
527.212	36.46
527.336	21.46
527.459	34.46
527.582	21.46
527.706	29.46
527.829	37.46
527.953	9.46
528.076	-3.54
528.2	25.46
528.323	40.46
528.446	31.46
528.57	25.46
528.693	35.46
528.817	31.46
528.94	46.46
529.064	34.46
529.187	14.46
529.31	10.46
529.434	22.46
529.557	14.46
529.68	-0.54
529.804	23.46
529.927	14.46
530.051	14.46
530.174	8.46
530.297	27.46
530.421	39.46
530.544	28.46
530.668	22.46
530.791	9.46
530.914	35.46
531.038	18.46
531.161	19.46
531.284	25.46
531.408	37.46
531.531	14.46
531.654	18.46
531.778	9.46
531.901	14.46
532.024	25.46
532.148	22.46
532.271	32.46
532.394	10.46
532.518	27.46
532.641	36.46
532.764	44.46
532.888	14.46
533.011	7.46
533.134	-3.54
533.258	42.46
533.381	25.46
533.504	24.46
533.628	19.46
533.751	24.46
533.874	21.46
533.997	20.46
534.121	-4.54
534.244	13.46
534.367	24.46
534.491	29.46
534.614	23.46
534.737	42.46
534.86	41.46
534.984	29.46
535.107	16.46
535.23	35.46
535.354	16.46
535.477	7.46
535.6	26.46
535.723	25.46
535.847	37.46
535.97	18.46
536.093	16.46
536.216	19.46
536.34	27.46
536.463	14.46
536.586	30.46
536.709	45.46
536.833	42.46
536.956	19.46
537.079	18.46
537.202	35.46
537.325	10.46
537.449	12.46
537.572	18.46
537.695	13.46
537.818	23.46
537.941	29.46
538.065	15.46
538.188	17.46
538.311	36.46
538.434	30.46
538.558	29.46
538.681	41.46
538.804	34.46
538.927	35.46
539.05	34.46
539.173	24.46
539.297	1.46
539.42	14.46
539.543	24.46
539.666	31.46
539.789	21.46
539.913	35.46
540.036	20.46
540.159	34.46
540.282	28.46
540.405	30.46
540.528	29.46
540.651	19.46
540.775	37.46
540.898	46.46
541.021	25.46
541.144	40.46
541.267	21.46
541.39	38.46
541.513	32.46
541.637	44.46
541.76	34.46
541.883	31.46
542.006	46.46
542.129	41.46
542.252	30.46
542.375	35.46
542.498	43.46
542.622	54.46
542.745	52.46
542.868	52.46
542.991	63.46
543.114	59.46
543.237	50.46
543.36	46.46
543.483	66.46
543.606	60.46
543.73	84.46
543.853	63.46
543.976	86.46
544.099	116.46
544.222	135.46
544.345	148.46
544.468	165.46
544.591	222.46
544.714	281.46
544.837	365.46
544.96	450.46
545.083	638.46
545.206	1066.46
545.329	2403.46
545.453	10855.46
545.576	15246.46
545.699	15688.46
545.822	15688.46
545.945	15688.46
546.068	15688.46
546.191	15688.46
546.314	15688.46
546.437	15688.46
546.56	15688.46
546.683	15688.46
546.806	15688.46
546.929	15688.46
547.052	15688.46
547.175	15688.46
547.298	15688.46
547.421	15688.46
547.544	15688.46
547.667	3375.46
547.79	1721.46
547.913	892.46
548.036	829.46
548.159	618.46
548.282	619.46
548.405	493.46
548.528	467.46
548.651	422.46
548.774	412.46
548.897	336.46
549.02	348.46
549.143	284.46
549.266	260.46
549.389	273.46
549.512	253.46
549.635	248.46
549.758	249.46
549.881	217.46
550.004	216.46
550.127	220.46
550.25	180.46
550.373	160.46
550.496	177.46
550.619	173.46
550.742	162.46
550.865	156.46
550.988	155.46
551.111	161.46
551.234	155.46
551.356	151.46
551.479	129.46
551.602	138.46
551.725	131.46
551.848	131.46
551.971	140.46
552.094	138.46
552.217	109.46
552.34	119.46
552.463	110.46
552.586	131.46
552.709	112.46
552.832	90.46
552.955	122.46
553.077	121.46
553.2	102.46
553.323	85.46
553.446	90.46
553.569	90.46
553.692	104.46
553.815	110.46
553.938	111.46
554.061	116.46
554.184	95.46
554.306	92.46
554.429	86.46
554.552	60.46
554.675	76.46
554.798	78.46
554.921	75.46
555.044	78.46
555.167	79.46
555.29	73.46
555.412	66.46
555.535	89.46
555.658	86.46
555.781	91.46
555.904	81.46
556.027	78.46
556.15	93.46
556.272	82.46
556.395	77.46
556.518	80.46
556.641	73.46
556.764	90.46
556.887	78.46
557.01	72.46
557.132	50.46
557.255	58.46
557.378	73.46
557.501	55.46
557.624	79.46
557.747	84.46
557.869	85.46
557.992	102.46
558.115	101.46
558.238	102.46
558.361	98.46
558.483	97.46
558.606	59.46
558.729	59.46
558.852	75.46
558.975	71.46
559.098	60.46
559.22	69.46
559.343	70.46
559.466	76.46
559.589	49.46
559.712	61.46
559.834	62.46
559.957	51.46
560.08	56.46
560.203	65.46
560.325	83.46
560.448	63.46
560.571	66.46
560.694	50.46
560.817	61.46
560.939	63.46
561.062	49.46
561.185	76.46
561.308	69.46
561.43	60.46
561.553	58.46
561.676	57.46
561.799	71.46
561.921	61.46
562.044	74.46
562.167	65.46
562.29	75.46
562.413	62.46
562.535	59.46
562.658	43.46
562.781	50.46
562.903	73.46
563.026	95.46
563.149	149.46
563.272	117.46
563.394	100.46
563.517	111.46
563.64	63.46
563.763	47.46
563.885	29.46
564.008	59.46
564.131	53.46
564.254	25.46
564.376	37.46
564.499	33.46
564.622	51.46
564.744	47.46
564.867	39.46
564.99	50.46
565.113	38.46
565.235	68.46
565.358	48.46
565.481	29.46
565.603	33.46
565.726	40.46
565.849	49.46
565.971	56.46
566.094	16.46
566.217	40.46
566.34	34.46
566.462	49.46
566.585	38.46
566.708	62.46
566.83	50.46
566.953	60.46
567.076	28.46
567.198	38.46
567.321	43.46
567.444	51.46
567.566	45.46
567.689	34.46
567.812	38.46
567.934	41.46
568.057	27.46
568.18	38.46
568.302	34.46
568.425	33.46
568.548	34.46
568.67	33.46
568.793	35.46
568.916	59.46
569.038	42.46
569.161	25.46
569.283	45.46
569.406	39.46
569.529	48.46
569.651	25.46
569.774	30.46
569.897	29.46
570.019	50.46
570.142	38.46
570.265	26.46
570.387	47.46
570.51	53.46
570.632	60.46
570.755	38.46
570.878	41.46
571	40.46
571.123	48.46
571.246	35.46
571.368	27.46
571.491	24.46
571.613	26.46
571.736	14.46
571.859	34.46
571.981	30.46
572.104	19.46
572.226	42.46
572.349	18.46
572.472	32.46
572.594	57.46
572.717	62.46
572.839	21.46
572.962	48.46
573.085	41.46
573.207	25.46
573.33	38.46
573.452	45.46
573.575	46.46
573.697	46.46
573.82	42.46
573.943	41.46
574.065	52.46
574.188	45.46
574.31	55.46
574.433	52.46
574.555	58.46
574.678	25.46
574.801	53.46
574.923	41.46
575.046	39.46
575.168	51.46
575.291	50.46
575.413	43.46
575.536	42.46
575.659	40.46
575.781	36.46
575.904	57.46
576.026	64.46
576.149	84.46
576.271	128.46
576.394	207.46
576.516	505.46
576.639	3551.46
576.761	10023.46
576.884	8682.46
577.007	8639.46
577.129	7856.46
577.252	3681.46
577.374	1296.46
577.497	501.46
577.619	277.46
577.742	182.46
577.864	168.46
577.987	142.46
578.109	134.46
578.232	134.46
578.354	145.46
578.477	190.46
578.599	373.46
578.722	1932.46
578.844	8956.46
578.967	9651.46
579.089	8579.46
579.212	8906.46
579.334	5188.46
579.457	1890.46
579.579	710.46
579.702	346.46
579.824	211.46
579.947	128.46
580.069	121.46
580.192	91.46
580.314	96.46
580.437	87.46
580.559	97.46
580.682	88.46
580.804	72.46
580.927	70.46
581.049	64.46
581.172	71.46
581.294	53.46
581.417	66.46
581.539	58.46
581.662	54.46
581.784	59.46
581.907	57.46
582.029	41.46
582.152	42.46
582.274	66.46
582.396	62.46
582.519	48.46
582.641	44.46
582.764	47.46
582.886	55.46
583.009	39.46
583.131	35.46
583.254	29.46
583.376	53.46
583.499	46.46
583.621	35.46
583.743	46.46
583.866	37.46
583.988	30.46
584.111	31.46
584.233	45.46
584.356	42.46
584.478	34.46
584.601	26.46
584.723	29.46
584.845	50.46
584.968	38.46
585.09	32.46
585.213	49.46
585.335	37.46
585.458	47.46
585.58	38.46
585.702	35.46
585.825	42.46
585.947	36.46
586.07	29.46
586.192	33.46
586.315	38.46
586.437	28.46
586.559	49.46
586.682	41.46
586.804	61.46
586.927	32.46
587.049	21.46
587.171	41.46
587.294	38.46
587.416	56.46
587.539	32.46
587.661	29.46
587.783	38.46
587.906	29.46
588.028	38.46
588.151	44.46
588.273	51.46
588.395	30.46
588.518	20.46
588.64	21.46
588.763	50.46
588.885	51.46
589.007	37.46
589.13	14.46
589.252	21.46
589.375	32.46
589.497	30.46
589.619	39.46
589.742	37.46
589.864	39.46
589.986	28.46
590.109	14.46
590.231	36.46
590.354	47.46
590.476	4.46
590.598	19.46
590.721	21.46
590.843	53.46
590.965	35.46
591.088	28.46
591.21	38.46
591.332	27.46
591.455	14.46
591.577	5.46
591.7	1.46
591.822	43.46
591.944	42.46
592.067	32.46
592.189	31.46
592.311	39.46
592.434	43.46
592.556	36.46
592.678	30.46
592.801	32.46
592.923	13.46
593.045	11.46
593.168	25.46
593.29	27.46
593.412	50.46
593.535	26.46
593.657	21.46
593.779	24.46
593.902	35.46
594.024	37.46
594.146	30.46
594.269	34.46
594.391	29.46
594.513	29.46
594.636	48.46
594.758	32.46
594.88	42.46
595.003	20.46
595.125	42.46
595.247	35.46
595.37	43.46
595.492	26.46
595.614	46.46
595.737	41.46
595.859	28.46
595.981	27.46
596.104	32.46
596.226	27.46
596.348	32.46
596.471	26.46
596.593	18.46
596.715	29.46
596.838	19.46
596.96	6.46
597.082	40.46
597.204	34.46
597.327	32.46
597.449	20.46
597.571	26.46
597.694	34.46
597.816	29.46
597.938	21.46
598.061	25.46
598.183	14.46
598.305	34.46
598.427	17.46
598.55	21.46
598.672	37.46
598.794	40.46
598.917	43.46
599.039	25.46
599.161	41.46
599.283	25.46
599.406	25.46
599.528	19.46
599.65	46.46
599.773	41.46
599.895	50.46
600.017	47.46
600.139	26.46
600.262	35.46
600.384	32.46
600.506	36.46
600.628	52.46
600.751	46.46
600.873	19.46
600.995	21.46
601.118	11.46
601.24	35.46
601.362	51.46
601.484	35.46
601.607	20.46
601.729	13.46
601.851	22.46
601.973	12.46
602.096	26.46
602.218	48.46
602.34	15.46
602.462	53.46
602.585	25.46
602.707	14.46
602.829	41.46
602.951	47.46
603.074	15.46
603.196	45.46
603.318	18.46
603.44	41.46
603.563	29.46
603.685	19.46
603.807	18.46
603.929	14.46
604.052	34.46
604.174	30.46
604.296	33.46
604.418	38.46
604.541	41.46
604.663	10.46
604.785	32.46
604.907	29.46
605.03	23.46
605.152	46.46
605.274	10.46
605.396	33.46
605.519	20.46
605.641	25.46
605.763	14.46
605.885	30.46
606.008	25.46
606.13	40.46
606.252	43.46
606.374	-6.54
606.496	6.46
606.619	9.46
606.741	24.46
606.863	45.46
606.985	54.46
607.108	28.46
607.23	22.46
607.352	27.46
607.474	19.46
607.596	25.46
607.719	13.46
607.841	39.46
607.963	36.46
608.085	16.46
608.207	41.46
608.33	16.46
608.452	32.46
608.574	25.46
608.696	49.46
608.819	18.46
608.941	36.46
609.063	20.46
609.185	19.46
609.307	41.46
609.43	21.46
609.552	28.46
609.674	19.46
609.796	38.46
609.918	29.46
610.041	18.46
610.163	43.46
610.285	27.46
610.407	34.46
610.529	30.46
610.652	22.46
610.774	41.46
610.896	51.46
611.018	33.46
611.14	24.46
611.263	17.46
611.385	35.46
611.507	34.46
611.629	12.46
611.751	34.46
611.873	52.46
611.996	26.46
612.118	45.46
612.24	36.46
612.362	43.46
612.484	55.46
612.607	63.46
612.729	41.46
612.851	33.46
612.973	47.46
613.095	31.46
613.218	18.46
613.34	31.46
613.462	23.46
613.584	23.46
613.706	16.46
613.828	38.46
613.951	26.46
614.073	19.46
614.195	4.46
614.317	40.46
614.439	33.46
614.561	26.46
614.684	29.46
614.806	29.46
614.928	22.46
615.05	45.46
615.172	32.46
615.294	44.46
615.417	34.46
615.539	19.46
615.661	38.46
615.783	48.46
615.905	40.46
616.027	30.46
616.15	49.46
616.272	34.46
616.394	26.46
616.516	25.46
616.638	15.46
616.76	21.46
616.883	17.46
617.005	21.46
617.127	11.46
617.249	22.46
617.371	26.46
617.493	21.46
617.615	26.46
617.738	32.46
617.86	17.46
617.982	10.46
618.104	26.46
618.226	10.46
618.348	25.46
618.471	40.46
618.593	36.46
618.715	6.46
618.837	25.46
618.959	3.46
619.081	54.46
619.203	35.46
619.326	20.46
619.448	36.46
619.57	43.46
619.692	42.46
619.814	39.46
619.936	17.46
620.058	26.46
620.181	18.46
620.303	17.46
620.425	31.46
620.547	29.46
620.669	32.46
620.791	27.46
620.913	29.46
621.036	13.46
621.158	27.46
621.28	26.46
621.402	5.46
621.524	13.46
621.646	38.46
621.768	21.46
621.891	5.46
622.013	17.46
622.135	11.46
622.257	2.46
622.379	17.46
622.501	15.46
622.623	18.46
622.745	25.46
622.868	39.46
622.99	25.46
623.112	31.46
623.234	26.46
623.356	20.46
623.478	23.46
623.6	34.46
623.722	15.46
623.845	19.46
623.967	42.46
624.089	40.46
624.211	22.46
624.333	34.46
624.455	25.46
624.577	34.46
624.699	41.46
624.822	34.46
624.944	14.46
625.066	32.46
625.188	14.46
625.31	32.46
625.432	54.46
625.554	17.46
625.676	44.46
625.799	42.46
625.921	23.46
626.043	26.46
626.165	23.46
626.287	4.46
626.409	29.46
626.531	19.46
626.653	28.46
626.775	27.46
626.898	32.46
627.02	43.46
627.142	44.46
627.264	46.46
627.386	17.46
627.508	35.46
627.63	5.46
627.752	21.46
627.874	38.46
627.997	36.46
628.119	34.46
628.241	48.46
628.363	32.46
628.485	35.46
628.607	21.46
628.729	17.46
628.851	2.46
628.973	22.46
629.096	16.46
629.218	26.46
629.34	35.46
629.462	38.46
629.584	28.46
629.706	36.46
629.828	29.46
629.95	31.46
630.072	27.46
630.195	22.46
630.317	31.46
630.439	7.46
630.561	26.46
630.683	12.46
630.805	22.46
630.927	36.46
631.049	22.46
631.171	4.46
631.293	31.46
631.416	20.46
631.538	25.46
631.66	13.46
631.782	38.46
631.904	41.46
632.026	11.46
632.148	28.46
632.27	-4.54
632.392	23.46
632.514	31.46
632.637	30.46
632.759	12.46
632.881	22.46
633.003	2.46
633.125	15.46
633.247	18.46
633.369	15.46
633.491	5.46
633.613	28.46
633.735	24.46
633.858	28.46
633.98	24.46
634.102	12.46
634.224	4.46
634.346	24.46
634.468	26.46
634.59	24.46
634.712	29.46
634.834	33.46
634.956	15.46
635.078	17.46
635.201	24.46
635.323	26.46
635.445	5.46
635.567	13.46
635.689	30.46
635.811	8.46
635.933	17.46
636.055	12.46
636.177	23.46
636.299	41.46
636.421	26.46
636.544	17.46
636.666	31.46
636.788	27.46
636.91	23.46
637.032	12.46
637.154	34.46
637.276	42.46
637.398	35.46
637.52	34.46
637.642	16.46
637.764	13.46
637.887	26.46
638.009	22.46
638.131	20.46
638.253	22.46
638.375	14.46
638.497	19.46
638.619	14.46
638.741	19.46
638.863	12.46
638.985	12.46
639.107	18.46
639.23	15.46
639.352	33.46
639.474	23.46
639.596	14.46
639.718	13.46
639.84	31.46
639.962	29.46
640.084	55.46
640.206	26.46
640.328	30.46
640.45	21.46
640.573	14.46
640.695	14.46
640.817	21.46
640.939	10.46
641.061	10.46
641.183	16.46
641.305	-1.54
641.427	11.46
641.549	17.46
641.671	19.46
641.793	15.46
641.915	30.46
642.038	23.46
642.16	8.46
642.282	15.46
642.404	20.46
642.526	21.46
642.648	14.46
642.77	19.46
642.892	19.46
643.014	42.46
643.136	22.46
643.258	13.46
643.381	41.46
643.503	46.46
643.625	1.46
643.747	14.46
643.869	25.46
643.991	15.46
644.113	4.46
644.235	13.46
644.357	19.46
644.479	35.46
644.601	22.46
644.723	23.46
644.846	22.46
644.968	21.46
645.09	15.46
645.212	15.46
645.334	36.46
645.456	19.46
645.578	32.46
645.7	36.46
645.822	16.46
645.944	15.46
646.066	21.46
646.188	18.46
646.311	39.46
646.433	23.46
646.555	28.46
646.677	19.46
646.799	25.46
646.921	16.46
647.043	30.46
647.165	25.46
647.287	18.46
647.409	13.46
647.531	32.46
647.654	4.46
647.776	20.46
647.898	23.46
648.02	14.46
648.142	14.46
648.264	18.46
648.386	-3.54
648.508	0.46
648.63	11.46
648.752	24.46
648.874	22.46
648.997	15.46
649.119	26.46
649.241	13.46
649.363	14.46
649.485	46.46
649.607	18.46
649.729	18.46
649.851	12.46
649.973	6.46
650.095	12.46
650.217	10.46
650.34	10.46
650.462	26.46
650.584	26.46
650.706	22.46
650.828	16.46
650.95	10.46
651.072	28.46
651.194	12.46
651.316	12.46
651.438	12.46
651.56	14.46
651.683	14.46
651.805	35.46
651.927	1.46
652.049	13.46
652.171	28.46
652.293	18.46
652.415	4.46
652.537	13.46
652.659	6.46
652.781	18.46
652.903	38.46
653.026	40.46
653.148	15.46
653.27	-1.54
653.392	1.46
653.514	25.46
653.636	7.46
653.758	8.46
653.88	12.46
654.002	25.46
654.124	19.46
654.247	5.46
654.369	22.46
654.491	13.46
654.613	13.46
654.735	11.46
654.857	16.46
654.979	11.46
655.101	21.46
655.223	44.46
655.345	37.46
655.468	29.46
655.59	26.46
655.712	3.46
655.834	14.46
655.956	17.46
656.078	28.46
656.2	17.46
656.322	10.46
656.444	-3.54
656.566	31.46
656.689	9.46
656.811	15.46
656.933	17.46
657.055	-11.54
657.177	9.46
657.299	15.46
657.421	10.46
657.543	27.46
657.665	9.46
657.787	15.46
657.91	29.46
658.032	7.46
658.154	12.46
658.276	16.46
658.398	-0.54
658.52	21.46
658.642	23.46
658.764	19.46
658.886	-5.54
659.009	21.46
659.131	25.46
659.253	11.46
659.375	25.46
659.497	16.46
659.619	29.46
659.741	11.46
659.863	3.46
659.985	8.46
660.108	19.46
660.23	9.46
660.352	13.46
660.474	20.46
660.596	16.46
660.718	21.46
660.84	14.46
660.962	12.46
661.084	-5.54
661.207	15.46
661.329	10.46
661.451	18.46
661.573	12.46
661.695	43.46
661.817	16.46
661.939	32.46
662.061	17.46
662.184	10.46
662.306	6.46
662.428	15.46
662.55	21.46
662.672	0.46
662.794	26.46
662.916	13.46
663.038	5.46
663.161	13.46
663.283	15.46
663.405	37.46
663.527	14.46
663.649	18.46
663.771	13.46
663.893	-1.54
664.015	2.46
664.138	23.46
664.26	24.46
664.382	35.46
664.504	12.46
664.626	-5.54
664.748	15.46
664.87	12.46
664.992	33.46
665.115	13.46
665.237	27.46
665.359	12.46
665.481	4.46
665.603	28.46
665.725	22.46
665.847	10.46
665.97	7.46
666.092	20.46
666.214	21.46
666.336	13.46
666.458	20.46
666.58	25.46
666.702	25.46
666.825	-2.54
666.947	-9.54
667.069	23.46
667.191	19.46
667.313	18.46
667.435	2.46
667.557	-5.54
667.68	9.46
667.802	-0.54
667.924	1.46
668.046	31.46
668.168	19.46
668.29	28.46
668.412	9.46
668.535	10.46
668.657	11.46
668.779	18.46
668.901	25.46
669.023	19.46
669.145	10.46
669.267	21.46
669.39	26.46
669.512	22.46
669.634	20.46
669.756	8.46
669.878	17.46
670	21.46
670.123	20.46
670.245	41.46
670.367	21.46
670.489	13.46
670.611	13.46
670.733	15.46
670.856	18.46
670.978	14.46
671.1	21.46
671.222	24.46
671.344	17.46
671.466	4.46
671.589	10.46
671.711	14.46
671.833	22.46
671.955	24.46
672.077	8.46
672.199	41.46
672.322	47.46
672.444	21.46
672.566	9.46
672.688	12.46
672.81	24.46
672.932	20.46
673.055	16.46
673.177	13.46
673.299	23.46
673.421	6.46
673.543	13.46
673.665	41.46
673.788	29.46
673.91	2.46
674.032	-2.54
674.154	5.46
674.276	27.46
674.399	14.46
674.521	16.46
674.643	9.46
674.765	6.46
674.887	18.46
675.009	14.46
675.132	9.46
675.254	28.46
675.376	9.46
675.498	26.46
675.62	31.46
675.743	11.46
675.865	13.46
675.987	9.46
676.109	26.46
676.231	15.46
676.354	28.46
676.476	7.46
676.598	29.46
676.72	19.46
676.842	24.46
676.965	10.46
677.087	27.46
677.209	33.46
677.331	26.46
677.453	31.46
677.576	14.46
677.698	18.46
677.82	12.46
677.942	-2.54
678.064	15.46
678.187	14.46
678.309	27.46
678.431	14.46
678.553	19.46
678.675	39.46
678.798	40.46
678.92	19.46
679.042	8.46
679.164	7.46
679.286	15.46
679.409	8.46
679.531	-3.54
679.653	4.46
679.775	-0.54
679.898	7.46
680.02	9.46
680.142	9.46
680.264	11.46
680.386	4.46
680.509	15.46
680.631	14.46
680.753	23.46
680.875	5.46
680.998	21.46
681.12	-1.54
681.242	16.46
681.364	12.46
681.486	-4.54
681.609	-10.54
681.731	-6.54
681.853	10.46
681.975	0.46
682.098	25.46
682.22	43.46
682.342	7.46
682.464	27.46
682.587	9.46
682.709	15.46
682.831	12.46
682.953	11.46
683.076	-3.54
683.198	5.46
683.32	9.46
683.442	9.46
683.565	34.46
683.687	20.46
683.809	7.46
683.931	12.46
684.054	15.46
684.176	25.46
684.298	3.46
684.42	13.46
684.543	18.46
684.665	7.46
684.787	-4.54
684.909	-6.54
685.032	3.46
685.154	3.46
685.276	22.46
685.398	9.46
685.521	25.46
685.643	24.46
685.765	26.46
685.887	15.46
686.01	18.46
686.132	19.46
686.254	19.46
686.377	21.46
686.499	13.46
686.621	26.46
686.743	10.46
686.866	7.46
686.988	32.46
687.11	35.46
687.232	15.46
687.355	11.46
687.477	14.46
687.599	18.46
687.722	27.46
687.844	10.46
687.966	13.46
688.088	21.46
688.211	50.46
688.333	14.46
688.455	16.46
688.578	37.46
688.7	34.46
688.822	20.46
688.944	13.46
689.067	50.46
689.189	21.46
689.311	3.46
689.434	-1.54
689.556	7.46
689.678	22.46
689.801	11.46
689.923	7.46
690.045	23.46
690.167	23.46
690.29	17.46
690.412	21.46
690.534	23.46
690.657	18.46
690.779	14.46
690.901	30.46
691.024	24.46
691.146	21.46
691.268	11.46
691.391	27.46
691.513	-1.54
691.635	40.46
691.758	33.46
691.88	25.46
692.002	-10.54
692.125	0.46
692.247	10.46
692.369	11.46
692.492	-11.54
692.614	10.46
692.736	5.46
692.859	1.46
692.981	13.46
693.103	11.46
693.226	23.46
693.348	42.46
693.47	25.46
693.593	39.46
693.715	33.46
693.837	31.46
693.96	37.46
694.082	29.46
694.204	20.46
694.327	23.46
694.449	17.46
694.571	31.46
694.694	27.46
694.816	14.46
694.938	32.46
695.061	17.46
695.183	-0.54
695.305	13.46
695.428	30.46
695.55	-0.54
695.672	9.46
695.795	19.46
695.917	33.46
696.04	17.46
696.162	13.46
696.284	21.46
696.407	28.46
696.529	18.46
696.651	41.46
696.774	19.46
696.896	18.46
697.019	36.46
697.141	11.46
697.263	17.46
697.386	9.46
697.508	19.46
697.63	19.46
697.753	16.46
697.875	15.46
697.998	9.46
698.12	5.46
698.242	-0.54
698.365	16.46
698.487	9.46
698.61	17.46
698.732	17.46
698.854	28.46
698.977	15.46
699.099	26.46
699.221	15.46
699.344	3.46
699.466	8.46
699.589	7.46
699.711	2.46
699.834	10.46
699.956	22.46
700.078	19.46
700.201	5.46
700.323	32.46
700.446	28.46
700.568	17.46
700.69	23.46
700.813	31.46
700.935	31.46
701.058	24.46
701.18	9.46
701.302	13.46
701.425	3.46
701.547	29.46
701.67	11.46
701.792	-5.54
701.915	6.46
702.037	10.46
702.159	2.46
702.282	19.46
702.404	14.46
702.527	26.46
702.649	17.46
702.772	34.46
702.894	20.46
703.017	26.46
703.139	25.46
703.261	27.46
703.384	27.46
703.506	5.46
703.629	12.46
703.751	14.46
703.874	27.46
703.996	12.46
704.119	-11.54
704.241	12.46
704.364	-12.54
704.486	19.46
704.608	4.46
704.731	-10.54
704.853	19.46
704.976	7.46
705.098	5.46
705.221	1.46
705.343	14.46
705.466	30.46
705.588	23.46
705.711	13.46
705.833	23.46
705.956	19.46
706.078	31.46
706.201	17.46
706.323	21.46
706.446	13.46
