Data from LowRes_mercury_15_20_11_07_2024_HR4C61881__44__15-23-36-671.txt Node

Date: Thu Nov 07 15:23:36 EST 2024
User: crc00042
Spectrometer: HR4C6188
Trigger mode: 4
Integration Time (sec): 1.000000E-1
Scans to average: 1
Electric dark correction enabled: true
Nonlinearity correction enabled: false
Boxcar width: 0
XAxis mode: Wavelengths
Number of Pixels in Spectrum: 3648
>>>>>Begin Spectral Data<<<<<
245.66	-65.46
245.797	-65.46
245.934	-65.46
246.071	-80.46
246.208	6.54
246.344	1.54
246.481	-2.46
246.618	-14.46
246.755	5.54
246.892	3.54
247.029	-12.46
247.165	-12.46
247.302	13.54
247.439	11.54
247.576	16.54
247.713	1.54
247.849	17.54
247.986	-29.46
248.123	9.54
248.26	-2.46
248.396	19.54
248.533	7.54
248.67	-0.46
248.806	6.54
248.943	-4.46
249.08	-2.46
249.216	10.54
249.353	-20.46
249.49	-6.46
249.626	-18.46
249.763	-15.46
249.9	-8.46
250.036	18.54
250.173	19.54
250.309	6.54
250.446	2.54
250.582	14.54
250.719	3.54
250.856	-2.46
250.992	-4.46
251.129	2.54
251.265	-17.46
251.402	-0.46
251.538	-5.46
251.675	6.54
251.811	16.54
251.948	18.54
252.084	4.54
252.221	-0.46
252.357	-21.46
252.493	18.54
252.63	10.54
252.766	36.54
252.903	8.54
253.039	5.54
253.175	-5.46
253.312	11.54
253.448	12.54
253.585	-11.46
253.721	11.54
253.857	2.54
253.994	-0.46
254.13	12.54
254.266	4.54
254.403	6.54
254.539	20.54
254.675	6.54
254.811	-3.46
254.948	3.54
255.084	17.54
255.22	4.54
255.356	-0.46
255.493	12.54
255.629	12.54
255.765	-4.46
255.901	16.54
256.037	25.54
256.174	9.54
256.31	9.54
256.446	-7.46
256.582	-8.46
256.718	14.54
256.854	23.54
256.991	14.54
257.127	11.54
257.263	-1.46
257.399	20.54
257.535	2.54
257.671	10.54
257.807	0.54
257.943	-7.46
258.079	-8.46
258.215	-8.46
258.351	22.54
258.487	-1.46
258.623	0.54
258.759	17.54
258.895	4.54
259.031	9.54
259.167	8.54
259.303	21.54
259.439	-6.46
259.575	1.54
259.711	-12.46
259.847	-6.46
259.983	22.54
260.119	0.54
260.255	-5.46
260.391	-1.46
260.527	9.54
260.663	15.54
260.799	1.54
260.934	-7.46
261.07	-13.46
261.206	-8.46
261.342	-6.46
261.478	11.54
261.614	23.54
261.749	15.54
261.885	2.54
262.021	1.54
262.157	33.54
262.293	3.54
262.428	-1.46
262.564	7.54
262.7	8.54
262.836	22.54
262.971	27.54
263.107	-1.46
263.243	10.54
263.378	-4.46
263.514	-5.46
263.65	5.54
263.785	-15.46
263.921	-5.46
264.057	2.54
264.192	7.54
264.328	24.54
264.464	-1.46
264.599	-2.46
264.735	31.54
264.871	-2.46
265.006	23.54
265.142	15.54
265.277	3.54
265.413	4.54
265.548	17.54
265.684	11.54
265.819	16.54
265.955	5.54
266.091	-8.46
266.226	-18.46
266.362	-0.46
266.497	8.54
266.633	-3.46
266.768	-1.46
266.903	13.54
267.039	11.54
267.174	22.54
267.31	-4.46
267.445	0.54
267.581	3.54
267.716	20.54
267.851	9.54
267.987	1.54
268.122	15.54
268.258	0.54
268.393	-0.46
268.528	25.54
268.664	12.54
268.799	-7.46
268.934	13.54
269.07	-9.46
269.205	3.54
269.34	29.54
269.476	2.54
269.611	-5.46
269.746	22.54
269.881	6.54
270.017	28.54
270.152	7.54
270.287	13.54
270.422	21.54
270.558	4.54
270.693	19.54
270.828	1.54
270.963	8.54
271.098	-5.46
271.234	3.54
271.369	23.54
271.504	11.54
271.639	-8.46
271.774	-4.46
271.909	-1.46
272.045	-33.46
272.18	-8.46
272.315	4.54
272.45	27.54
272.585	-1.46
272.72	-5.46
272.855	-0.46
272.99	7.54
273.125	0.54
273.26	-3.46
273.395	3.54
273.53	14.54
273.665	14.54
273.8	10.54
273.935	8.54
274.07	9.54
274.205	11.54
274.34	-6.46
274.475	-1.46
274.61	9.54
274.745	-5.46
274.88	22.54
275.015	-8.46
275.15	13.54
275.285	29.54
275.42	14.54
275.555	19.54
275.69	36.54
275.825	25.54
275.959	14.54
276.094	-5.46
276.229	1.54
276.364	-6.46
276.499	12.54
276.634	15.54
276.768	-4.46
276.903	3.54
277.038	28.54
277.173	25.54
277.308	-3.46
277.442	4.54
277.577	0.54
277.712	4.54
277.847	-4.46
277.981	22.54
278.116	-6.46
278.251	7.54
278.386	-15.46
278.52	-5.46
278.655	-10.46
278.79	0.54
278.924	13.54
279.059	18.54
279.194	0.54
279.328	33.54
279.463	28.54
279.598	22.54
279.732	10.54
279.867	17.54
280.001	24.54
280.136	-11.46
280.271	2.54
280.405	4.54
280.54	-2.46
280.674	-0.46
280.809	14.54
280.943	-0.46
281.078	-7.46
281.213	-8.46
281.347	12.54
281.482	16.54
281.616	-8.46
281.751	7.54
281.885	2.54
282.02	17.54
282.154	41.54
282.288	-0.46
282.423	-5.46
282.557	-15.46
282.692	11.54
282.826	-9.46
282.961	12.54
283.095	1.54
283.229	3.54
283.364	3.54
283.498	-6.46
283.633	8.54
283.767	19.54
283.901	15.54
284.036	-2.46
284.17	8.54
284.304	1.54
284.439	16.54
284.573	-2.46
284.707	28.54
284.842	18.54
284.976	18.54
285.11	-15.46
285.244	5.54
285.379	33.54
285.513	7.54
285.647	19.54
285.781	5.54
285.916	4.54
286.05	0.54
286.184	31.54
286.318	11.54
286.453	-16.46
286.587	4.54
286.721	-16.46
286.855	10.54
286.989	9.54
287.123	-13.46
287.258	-18.46
287.392	-3.46
287.526	4.54
287.66	-3.46
287.794	-5.46
287.928	10.54
288.062	15.54
288.196	-9.46
288.33	0.54
288.464	26.54
288.598	19.54
288.733	2.54
288.867	18.54
289.001	14.54
289.135	7.54
289.269	-9.46
289.403	6.54
289.537	-18.46
289.671	-3.46
289.805	-4.46
289.939	16.54
290.073	12.54
290.207	0.54
290.34	10.54
290.474	8.54
290.608	21.54
290.742	1.54
290.876	11.54
291.01	7.54
291.144	36.54
291.278	15.54
291.412	-1.46
291.546	-1.46
291.679	8.54
291.813	19.54
291.947	14.54
292.081	0.54
292.215	1.54
292.349	15.54
292.482	19.54
292.616	7.54
292.75	-12.46
292.884	6.54
293.018	-7.46
293.151	-3.46
293.285	9.54
293.419	-5.46
293.553	-11.46
293.686	-9.46
293.82	-2.46
293.954	23.54
294.088	36.54
294.221	-8.46
294.355	2.54
294.489	14.54
294.622	10.54
294.756	25.54
294.89	29.54
295.023	10.54
295.157	4.54
295.291	13.54
295.424	17.54
295.558	8.54
295.691	1.54
295.825	2.54
295.959	5.54
296.092	-20.46
296.226	2.54
296.359	24.54
296.493	14.54
296.627	3.54
296.76	20.54
296.894	10.54
297.027	7.54
297.161	15.54
297.294	-7.46
297.428	8.54
297.561	38.54
297.695	-2.46
297.828	-8.46
297.962	2.54
298.095	5.54
298.229	11.54
298.362	2.54
298.495	-7.46
298.629	-4.46
298.762	1.54
298.896	14.54
299.029	8.54
299.162	8.54
299.296	12.54
299.429	-2.46
299.563	11.54
299.696	-0.46
299.829	21.54
299.963	19.54
300.096	25.54
300.229	11.54
300.363	2.54
300.496	9.54
300.629	-20.46
300.763	-6.46
300.896	9.54
301.029	27.54
301.162	6.54
301.296	-14.46
301.429	-14.46
301.562	-15.46
301.695	13.54
301.829	3.54
301.962	27.54
302.095	4.54
302.228	-21.46
302.362	3.54
302.495	-8.46
302.628	13.54
302.761	1.54
302.894	23.54
303.027	18.54
303.161	-1.46
303.294	-4.46
303.427	6.54
303.56	15.54
303.693	0.54
303.826	14.54
303.959	3.54
304.092	8.54
304.225	10.54
304.359	19.54
304.492	15.54
304.625	3.54
304.758	16.54
304.891	5.54
305.024	11.54
305.157	-0.46
305.29	-9.46
305.423	5.54
305.556	10.54
305.689	18.54
305.822	6.54
305.955	13.54
306.088	11.54
306.221	-3.46
306.354	-3.46
306.487	-5.46
306.62	23.54
306.752	-2.46
306.885	13.54
307.018	6.54
307.151	8.54
307.284	8.54
307.417	-0.46
307.55	12.54
307.683	-0.46
307.816	18.54
307.948	3.54
308.081	-3.46
308.214	17.54
308.347	30.54
308.48	3.54
308.613	-15.46
308.745	-15.46
308.878	-10.46
309.011	6.54
309.144	11.54
309.277	-9.46
309.409	14.54
309.542	-7.46
309.675	28.54
309.808	19.54
309.94	30.54
310.073	-0.46
310.206	-7.46
310.339	2.54
310.471	-11.46
310.604	19.54
310.737	-5.46
310.869	12.54
311.002	-1.46
311.135	-16.46
311.267	-26.46
311.4	-4.46
311.533	13.54
311.665	8.54
311.798	-0.46
311.93	18.54
312.063	44.54
312.196	46.54
312.328	81.54
312.461	52.54
312.593	22.54
312.726	54.54
312.859	92.54
312.991	159.54
313.124	47.54
313.256	23.54
313.389	7.54
313.521	10.54
313.654	-6.46
313.786	-11.46
313.919	-0.46
314.051	-1.46
314.184	4.54
314.316	10.54
314.449	-8.46
314.581	15.54
314.714	-6.46
314.846	15.54
314.978	2.54
315.111	-7.46
315.243	9.54
315.376	11.54
315.508	18.54
315.641	10.54
315.773	38.54
315.905	13.54
316.038	14.54
316.17	-12.46
316.302	-3.46
316.435	13.54
316.567	4.54
316.699	34.54
316.832	6.54
316.964	10.54
317.096	1.54
317.229	-1.46
317.361	-22.46
317.493	6.54
317.625	5.54
317.758	25.54
317.89	13.54
318.022	-8.46
318.155	-14.46
318.287	22.54
318.419	8.54
318.551	8.54
318.683	-5.46
318.816	-0.46
318.948	-2.46
319.08	5.54
319.212	11.54
319.344	10.54
319.477	5.54
319.609	4.54
319.741	6.54
319.873	-17.46
320.005	12.54
320.137	16.54
320.269	0.54
320.401	2.54
320.534	7.54
320.666	3.54
320.798	-13.46
320.93	-10.46
321.062	4.54
321.194	-2.46
321.326	-2.46
321.458	13.54
321.59	7.54
321.722	-14.46
321.854	-6.46
321.986	-1.46
322.118	11.54
322.25	7.54
322.382	-2.46
322.514	1.54
322.646	7.54
322.778	32.54
322.91	-1.46
323.042	4.54
323.174	2.54
323.306	4.54
323.438	-7.46
323.57	6.54
323.702	22.54
323.834	4.54
323.966	-12.46
324.097	13.54
324.229	18.54
324.361	14.54
324.493	8.54
324.625	-3.46
324.757	11.54
324.889	1.54
325.021	3.54
325.152	17.54
325.284	20.54
325.416	2.54
325.548	11.54
325.68	12.54
325.811	28.54
325.943	19.54
326.075	10.54
326.207	19.54
326.339	9.54
326.47	-13.46
326.602	15.54
326.734	20.54
326.866	15.54
326.997	-6.46
327.129	10.54
327.261	-6.46
327.392	4.54
327.524	-1.46
327.656	9.54
327.787	-3.46
327.919	22.54
328.051	10.54
328.182	24.54
328.314	32.54
328.446	9.54
328.577	39.54
328.709	5.54
328.841	-9.46
328.972	-14.46
329.104	-3.46
329.235	0.54
329.367	4.54
329.499	-3.46
329.63	7.54
329.762	7.54
329.893	5.54
330.025	7.54
330.156	2.54
330.288	29.54
330.419	13.54
330.551	11.54
330.683	17.54
330.814	-6.46
330.946	7.54
331.077	-20.46
331.208	-4.46
331.34	-3.46
331.471	3.54
331.603	-2.46
331.734	-9.46
331.866	-8.46
331.997	23.54
332.129	11.54
332.26	13.54
332.392	15.54
332.523	7.54
332.654	2.54
332.786	1.54
332.917	12.54
333.048	28.54
333.18	39.54
333.311	11.54
333.443	10.54
333.574	10.54
333.705	46.54
333.837	39.54
333.968	98.54
334.099	245.54
334.231	215.54
334.362	70.54
334.493	10.54
334.624	15.54
334.756	23.54
334.887	16.54
335.018	11.54
335.15	24.54
335.281	-6.46
335.412	31.54
335.543	19.54
335.675	14.54
335.806	20.54
335.937	13.54
336.068	29.54
336.199	37.54
336.331	17.54
336.462	11.54
336.593	18.54
336.724	0.54
336.855	10.54
336.986	27.54
337.118	16.54
337.249	9.54
337.38	16.54
337.511	18.54
337.642	15.54
337.773	14.54
337.904	9.54
338.035	24.54
338.166	10.54
338.298	13.54
338.429	-1.46
338.56	8.54
338.691	21.54
338.822	8.54
338.953	19.54
339.084	18.54
339.215	30.54
339.346	7.54
339.477	16.54
339.608	-5.46
339.739	6.54
339.87	4.54
340.001	-5.46
340.132	23.54
340.263	16.54
340.394	22.54
340.525	23.54
340.656	15.54
340.787	-1.46
340.918	36.54
341.049	8.54
341.179	19.54
341.31	22.54
341.441	17.54
341.572	35.54
341.703	26.54
341.834	9.54
341.965	25.54
342.096	17.54
342.227	14.54
342.357	25.54
342.488	26.54
342.619	-1.46
342.75	22.54
342.881	20.54
343.012	34.54
343.142	44.54
343.273	0.54
343.404	26.54
343.535	53.54
343.666	38.54
343.796	43.54
343.927	32.54
344.058	26.54
344.189	29.54
344.319	8.54
344.45	26.54
344.581	20.54
344.712	13.54
344.842	14.54
344.973	26.54
345.104	42.54
345.234	16.54
345.365	-2.46
345.496	26.54
345.626	38.54
345.757	31.54
345.888	10.54
346.018	26.54
346.149	26.54
346.28	45.54
346.41	11.54
346.541	61.54
346.672	17.54
346.802	28.54
346.933	27.54
347.063	26.54
347.194	30.54
347.325	27.54
347.455	44.54
347.586	43.54
347.716	17.54
347.847	28.54
347.977	35.54
348.108	52.54
348.238	42.54
348.369	41.54
348.499	42.54
348.63	37.54
348.76	41.54
348.891	48.54
349.021	60.54
349.152	45.54
349.282	64.54
349.413	43.54
349.543	41.54
349.674	24.54
349.804	54.54
349.935	31.54
350.065	27.54
350.196	41.54
350.326	30.54
350.456	28.54
350.587	36.54
350.717	28.54
350.848	28.54
350.978	42.54
351.108	8.54
351.239	41.54
351.369	29.54
351.499	21.54
351.63	25.54
351.76	16.54
351.89	20.54
352.021	26.54
352.151	19.54
352.281	27.54
352.412	27.54
352.542	37.54
352.672	17.54
352.803	22.54
352.933	23.54
353.063	28.54
353.193	26.54
353.324	23.54
353.454	15.54
353.584	25.54
353.714	10.54
353.845	8.54
353.975	14.54
354.105	25.54
354.235	16.54
354.365	17.54
354.496	28.54
354.626	46.54
354.756	26.54
354.886	15.54
355.016	28.54
355.146	0.54
355.277	30.54
355.407	28.54
355.537	24.54
355.667	33.54
355.797	17.54
355.927	21.54
356.057	31.54
356.187	19.54
356.318	26.54
356.448	36.54
356.578	30.54
356.708	40.54
356.838	25.54
356.968	33.54
357.098	33.54
357.228	34.54
357.358	13.54
357.488	18.54
357.618	65.54
357.748	52.54
357.878	4.54
358.008	2.54
358.138	36.54
358.268	17.54
358.398	33.54
358.528	7.54
358.658	34.54
358.788	5.54
358.918	29.54
359.048	50.54
359.178	44.54
359.308	29.54
359.438	43.54
359.568	39.54
359.698	22.54
359.827	18.54
359.957	28.54
360.087	41.54
360.217	36.54
360.347	42.54
360.477	45.54
360.607	16.54
360.737	40.54
360.866	15.54
360.996	19.54
361.126	23.54
361.256	31.54
361.386	34.54
361.516	45.54
361.645	28.54
361.775	33.54
361.905	23.54
362.035	43.54
362.165	50.54
362.294	44.54
362.424	56.54
362.554	37.54
362.684	29.54
362.813	55.54
362.943	60.54
363.073	43.54
363.203	60.54
363.332	78.54
363.462	74.54
363.592	109.54
363.721	119.54
363.851	149.54
363.981	229.54
364.111	237.54
364.24	318.54
364.37	486.54
364.5	845.54
364.629	1775.54
364.759	3781.54
364.888	6161.54
365.018	9287.54
365.148	14759.54
365.277	12852.54
365.407	4683.54
365.537	3085.54
365.666	3918.54
365.796	1797.54
365.925	799.54
366.055	749.54
366.184	1014.54
366.314	1403.54
366.444	2427.54
366.573	2052.54
366.703	639.54
366.832	209.54
366.962	118.54
367.091	90.54
367.221	73.54
367.35	63.54
367.48	83.54
367.609	46.54
367.739	57.54
367.868	49.54
367.998	56.54
368.127	46.54
368.257	58.54
368.386	72.54
368.516	48.54
368.645	40.54
368.775	58.54
368.904	29.54
369.033	40.54
369.163	36.54
369.292	28.54
369.422	46.54
369.551	44.54
369.68	29.54
369.81	36.54
369.939	22.54
370.069	63.54
370.198	37.54
370.327	36.54
370.457	29.54
370.586	56.54
370.715	48.54
370.845	36.54
370.974	54.54
371.103	53.54
371.233	35.54
371.362	31.54
371.491	29.54
371.621	41.54
371.75	50.54
371.879	45.54
372.008	59.54
372.138	67.54
372.267	81.54
372.396	57.54
372.525	50.54
372.655	36.54
372.784	12.54
372.913	22.54
373.042	48.54
373.172	45.54
373.301	18.54
373.43	12.54
373.559	25.54
373.688	27.54
373.818	34.54
373.947	41.54
374.076	6.54
374.205	41.54
374.334	39.54
374.463	11.54
374.593	26.54
374.722	23.54
374.851	42.54
374.98	7.54
375.109	23.54
375.238	32.54
375.367	44.54
375.496	2.54
375.625	30.54
375.755	40.54
375.884	34.54
376.013	34.54
376.142	8.54
376.271	15.54
376.4	31.54
376.529	25.54
376.658	36.54
376.787	24.54
376.916	46.54
377.045	28.54
377.174	25.54
377.303	30.54
377.432	31.54
377.561	15.54
377.69	20.54
377.819	62.54
377.948	12.54
378.077	20.54
378.206	9.54
378.335	7.54
378.464	19.54
378.593	60.54
378.722	8.54
378.851	19.54
378.98	37.54
379.108	17.54
379.237	10.54
379.366	21.54
379.495	29.54
379.624	19.54
379.753	2.54
379.882	24.54
380.011	14.54
380.14	12.54
380.268	10.54
380.397	15.54
380.526	25.54
380.655	23.54
380.784	6.54
380.913	1.54
381.041	24.54
381.17	10.54
381.299	11.54
381.428	34.54
381.557	6.54
381.685	45.54
381.814	33.54
381.943	35.54
382.072	1.54
382.2	12.54
382.329	1.54
382.458	16.54
382.587	35.54
382.715	21.54
382.844	17.54
382.973	11.54
383.102	2.54
383.23	25.54
383.359	9.54
383.488	26.54
383.616	1.54
383.745	18.54
383.874	8.54
384.003	17.54
384.131	-0.46
384.26	8.54
384.389	16.54
384.517	-8.46
384.646	-1.46
384.774	16.54
384.903	27.54
385.032	40.54
385.16	25.54
385.289	11.54
385.418	14.54
385.546	29.54
385.675	44.54
385.803	40.54
385.932	34.54
386.06	11.54
386.189	8.54
386.318	17.54
386.446	-3.46
386.575	32.54
386.703	30.54
386.832	23.54
386.96	1.54
387.089	35.54
387.217	27.54
387.346	4.54
387.474	25.54
387.603	20.54
387.731	18.54
387.86	37.54
387.988	12.54
388.117	28.54
388.245	16.54
388.374	12.54
388.502	31.54
388.631	25.54
388.759	20.54
388.888	28.54
389.016	16.54
389.144	19.54
389.273	12.54
389.401	21.54
389.53	3.54
389.658	39.54
389.786	8.54
389.915	23.54
390.043	40.54
390.172	18.54
390.3	42.54
390.428	54.54
390.557	25.54
390.685	33.54
390.813	29.54
390.942	31.54
391.07	39.54
391.198	22.54
391.327	32.54
391.455	19.54
391.583	23.54
391.712	32.54
391.84	15.54
391.968	22.54
392.096	19.54
392.225	30.54
392.353	33.54
392.481	33.54
392.609	41.54
392.738	19.54
392.866	25.54
392.994	12.54
393.122	37.54
393.251	30.54
393.379	15.54
393.507	6.54
393.635	2.54
393.764	26.54
393.892	28.54
394.02	28.54
394.148	28.54
394.276	26.54
394.404	38.54
394.533	18.54
394.661	21.54
394.789	37.54
394.917	39.54
395.045	20.54
395.173	15.54
395.302	17.54
395.43	24.54
395.558	45.54
395.686	26.54
395.814	43.54
395.942	18.54
396.07	31.54
396.198	32.54
396.326	34.54
396.454	55.54
396.582	31.54
396.711	9.54
396.839	41.54
396.967	23.54
397.095	18.54
397.223	10.54
397.351	47.54
397.479	44.54
397.607	33.54
397.735	34.54
397.863	60.54
397.991	37.54
398.119	41.54
398.247	46.54
398.375	58.54
398.503	51.54
398.631	41.54
398.759	52.54
398.887	57.54
399.015	52.54
399.143	67.54
399.271	73.54
399.399	65.54
399.526	67.54
399.654	74.54
399.782	71.54
399.91	98.54
400.038	89.54
400.166	78.54
400.294	94.54
400.422	99.54
400.55	108.54
400.678	109.54
400.805	122.54
400.933	127.54
401.061	117.54
401.189	123.54
401.317	132.54
401.445	106.54
401.573	70.54
401.7	52.54
401.828	48.54
401.956	45.54
402.084	48.54
402.212	48.54
402.34	28.54
402.467	27.54
402.595	42.54
402.723	55.54
402.851	48.54
402.978	48.54
403.106	72.54
403.234	84.54
403.362	115.54
403.489	142.54
403.617	140.54
403.745	192.54
403.873	285.54
404	573.54
404.128	1456.54
404.256	3845.54
404.384	5018.54
404.511	5335.54
404.639	7092.54
404.767	11207.54
404.894	14508.54
405.022	4840.54
405.15	1283.54
405.277	433.54
405.405	242.54
405.533	126.54
405.66	103.54
405.788	59.54
405.916	65.54
406.043	49.54
406.171	61.54
406.299	46.54
406.426	64.54
406.554	47.54
406.681	89.54
406.809	53.54
406.937	70.54
407.064	60.54
407.192	142.54
407.319	298.54
407.447	519.54
407.574	541.54
407.702	621.54
407.83	836.54
407.957	1608.54
408.085	943.54
408.212	281.54
408.34	79.54
408.467	59.54
408.595	71.54
408.722	61.54
408.85	50.54
408.977	32.54
409.105	41.54
409.232	38.54
409.36	38.54
409.487	37.54
409.615	35.54
409.742	50.54
409.87	33.54
409.997	44.54
410.125	39.54
410.252	51.54
410.379	43.54
410.507	52.54
410.634	34.54
410.762	12.54
410.889	49.54
411.017	29.54
411.144	46.54
411.271	37.54
411.399	37.54
411.526	28.54
411.653	34.54
411.781	51.54
411.908	34.54
412.036	30.54
412.163	34.54
412.29	42.54
412.418	20.54
412.545	41.54
412.672	34.54
412.8	49.54
412.927	35.54
413.054	51.54
413.182	46.54
413.309	38.54
413.436	15.54
413.564	23.54
413.691	43.54
413.818	40.54
413.945	12.54
414.073	28.54
414.2	19.54
414.327	26.54
414.454	27.54
414.582	40.54
414.709	25.54
414.836	29.54
414.963	31.54
415.091	36.54
415.218	20.54
415.345	23.54
415.472	34.54
415.6	20.54
415.727	24.54
415.854	17.54
415.981	28.54
416.108	24.54
416.236	20.54
416.363	30.54
416.49	24.54
416.617	38.54
416.744	32.54
416.871	40.54
416.998	24.54
417.126	38.54
417.253	16.54
417.38	24.54
417.507	43.54
417.634	28.54
417.761	34.54
417.888	38.54
418.015	30.54
418.143	24.54
418.27	58.54
418.397	48.54
418.524	33.54
418.651	32.54
418.778	43.54
418.905	60.54
419.032	46.54
419.159	35.54
419.286	63.54
419.413	49.54
419.54	48.54
419.667	46.54
419.794	30.54
419.921	45.54
420.048	49.54
420.175	43.54
420.302	39.54
420.429	53.54
420.556	57.54
420.683	57.54
420.81	57.54
420.937	59.54
421.064	61.54
421.191	52.54
421.318	77.54
421.445	86.54
421.572	53.54
421.699	67.54
421.826	32.54
421.953	38.54
422.08	32.54
422.207	20.54
422.334	1.54
422.461	25.54
422.588	13.54
422.714	43.54
422.841	32.54
422.968	26.54
423.095	12.54
423.222	19.54
423.349	34.54
423.476	34.54
423.603	3.54
423.729	5.54
423.856	26.54
423.983	40.54
424.11	23.54
424.237	44.54
424.364	38.54
424.491	23.54
424.617	6.54
424.744	9.54
424.871	15.54
424.998	20.54
425.125	30.54
425.251	32.54
425.378	11.54
425.505	28.54
425.632	32.54
425.758	15.54
425.885	15.54
426.012	24.54
426.139	40.54
426.266	20.54
426.392	29.54
426.519	32.54
426.646	19.54
426.772	27.54
426.899	2.54
427.026	26.54
427.153	20.54
427.279	40.54
427.406	32.54
427.533	12.54
427.659	14.54
427.786	22.54
427.913	39.54
428.039	30.54
428.166	24.54
428.293	-0.46
428.419	40.54
428.546	17.54
428.673	19.54
428.799	12.54
428.926	23.54
429.053	54.54
429.179	33.54
429.306	23.54
429.433	45.54
429.559	56.54
429.686	27.54
429.812	39.54
429.939	32.54
430.066	28.54
430.192	21.54
430.319	32.54
430.445	16.54
430.572	33.54
430.699	22.54
430.825	23.54
430.952	24.54
431.078	21.54
431.205	41.54
431.331	31.54
431.458	37.54
431.584	38.54
431.711	20.54
431.837	19.54
431.964	35.54
432.09	34.54
432.217	20.54
432.343	16.54
432.47	33.54
432.596	24.54
432.723	30.54
432.849	20.54
432.976	40.54
433.102	32.54
433.229	15.54
433.355	62.54
433.482	82.54
433.608	116.54
433.735	111.54
433.861	104.54
433.987	157.54
434.114	199.54
434.24	174.54
434.367	222.54
434.493	222.54
434.62	277.54
434.746	377.54
434.872	643.54
434.999	833.54
435.125	1720.54
435.252	5430.54
435.378	13234.54
435.504	15126.54
435.631	15336.54
435.757	15685.54
435.883	15685.54
436.01	15685.54
436.136	15685.54
436.262	15685.54
436.389	3408.54
436.515	1903.54
436.641	754.54
436.768	636.54
436.894	370.54
437.02	393.54
437.147	291.54
437.273	291.54
437.399	240.54
437.526	223.54
437.652	165.54
437.778	190.54
437.904	140.54
438.031	156.54
438.157	127.54
438.283	143.54
438.409	103.54
438.536	117.54
438.662	116.54
438.788	130.54
438.914	110.54
439.041	120.54
439.167	103.54
439.293	101.54
439.419	90.54
439.546	108.54
439.672	84.54
439.798	93.54
439.924	90.54
440.05	88.54
440.177	49.54
440.303	62.54
440.429	72.54
440.555	79.54
440.681	47.54
440.807	82.54
440.934	62.54
441.06	61.54
441.186	49.54
441.312	65.54
441.438	63.54
441.564	63.54
441.69	70.54
441.816	60.54
441.943	37.54
442.069	73.54
442.195	48.54
442.321	53.54
442.447	50.54
442.573	48.54
442.699	34.54
442.825	37.54
442.951	35.54
443.077	61.54
443.203	61.54
443.33	60.54
443.456	43.54
443.582	58.54
443.708	43.54
443.834	59.54
443.96	65.54
444.086	30.54
444.212	74.54
444.338	72.54
444.464	37.54
444.59	69.54
444.716	59.54
444.842	44.54
444.968	28.54
445.094	37.54
445.22	26.54
445.346	37.54
445.472	46.54
445.598	31.54
445.724	35.54
445.85	42.54
445.976	43.54
446.102	43.54
446.228	58.54
446.354	41.54
446.48	17.54
446.605	41.54
446.731	42.54
446.857	32.54
446.983	51.54
447.109	39.54
447.235	39.54
447.361	27.54
447.487	42.54
447.613	23.54
447.739	28.54
447.865	52.54
447.99	41.54
448.116	33.54
448.242	31.54
448.368	32.54
448.494	23.54
448.62	38.54
448.746	40.54
448.872	24.54
448.997	17.54
449.123	31.54
449.249	47.54
449.375	51.54
449.501	26.54
449.627	25.54
449.752	55.54
449.878	24.54
450.004	28.54
450.13	10.54
450.256	30.54
450.381	32.54
450.507	38.54
450.633	29.54
450.759	37.54
450.884	20.54
451.01	48.54
451.136	46.54
451.262	31.54
451.388	47.54
451.513	27.54
451.639	41.54
451.765	41.54
451.89	37.54
452.016	25.54
452.142	44.54
452.268	42.54
452.393	42.54
452.519	32.54
452.645	26.54
452.771	7.54
452.896	45.54
453.022	22.54
453.148	49.54
453.273	25.54
453.399	41.54
453.525	25.54
453.65	41.54
453.776	32.54
453.902	20.54
454.027	44.54
454.153	40.54
454.279	50.54
454.404	30.54
454.53	38.54
454.656	52.54
454.781	26.54
454.907	22.54
455.032	25.54
455.158	43.54
455.284	38.54
455.409	39.54
455.535	19.54
455.66	39.54
455.786	25.54
455.912	40.54
456.037	24.54
456.163	30.54
456.288	24.54
456.414	17.54
456.539	10.54
456.665	38.54
456.791	35.54
456.916	43.54
457.042	26.54
457.167	12.54
457.293	15.54
457.418	35.54
457.544	22.54
457.669	14.54
457.795	28.54
457.92	14.54
458.046	33.54
458.171	40.54
458.297	26.54
458.422	20.54
458.548	6.54
458.673	26.54
458.799	6.54
458.924	8.54
459.05	30.54
459.175	19.54
459.301	22.54
459.426	39.54
459.552	38.54
459.677	8.54
459.803	57.54
459.928	43.54
460.053	18.54
460.179	33.54
460.304	29.54
460.43	2.54
460.555	23.54
460.681	27.54
460.806	28.54
460.931	28.54
461.057	30.54
461.182	21.54
461.308	34.54
461.433	33.54
461.558	35.54
461.684	50.54
461.809	32.54
461.934	16.54
462.06	13.54
462.185	19.54
462.311	12.54
462.436	25.54
462.561	0.54
462.687	13.54
462.812	42.54
462.937	17.54
463.063	18.54
463.188	21.54
463.313	30.54
463.439	33.54
463.564	19.54
463.689	45.54
463.814	28.54
463.94	34.54
464.065	32.54
464.19	41.54
464.316	19.54
464.441	21.54
464.566	15.54
464.692	30.54
464.817	23.54
464.942	33.54
465.067	32.54
465.193	23.54
465.318	26.54
465.443	30.54
465.568	13.54
465.694	19.54
465.819	46.54
465.944	30.54
466.069	41.54
466.194	39.54
466.32	37.54
466.445	19.54
466.57	11.54
466.695	28.54
466.82	29.54
466.946	33.54
467.071	35.54
467.196	27.54
467.321	42.54
467.446	37.54
467.572	39.54
467.697	14.54
467.822	45.54
467.947	54.54
468.072	34.54
468.197	30.54
468.323	37.54
468.448	37.54
468.573	24.54
468.698	38.54
468.823	56.54
468.948	29.54
469.073	27.54
469.198	46.54
469.324	56.54
469.449	41.54
469.574	57.54
469.699	45.54
469.824	36.54
469.949	37.54
470.074	32.54
470.199	45.54
470.324	48.54
470.449	49.54
470.574	24.54
470.7	16.54
470.825	28.54
470.95	62.54
471.075	37.54
471.2	38.54
471.325	46.54
471.45	43.54
471.575	33.54
471.7	48.54
471.825	15.54
471.95	30.54
472.075	18.54
472.2	35.54
472.325	43.54
472.45	30.54
472.575	24.54
472.7	12.54
472.825	51.54
472.95	41.54
473.075	37.54
473.2	39.54
473.325	37.54
473.45	44.54
473.575	34.54
473.7	47.54
473.825	33.54
473.95	24.54
474.075	37.54
474.2	31.54
474.325	3.54
474.45	26.54
474.574	16.54
474.699	44.54
474.824	20.54
474.949	21.54
475.074	8.54
475.199	12.54
475.324	22.54
475.449	12.54
475.574	27.54
475.699	32.54
475.824	12.54
475.949	15.54
476.073	30.54
476.198	33.54
476.323	30.54
476.448	11.54
476.573	28.54
476.698	26.54
476.823	8.54
476.947	32.54
477.072	33.54
477.197	39.54
477.322	15.54
477.447	25.54
477.572	29.54
477.697	22.54
477.821	19.54
477.946	27.54
478.071	35.54
478.196	32.54
478.321	34.54
478.445	15.54
478.57	11.54
478.695	28.54
478.82	31.54
478.945	28.54
479.069	2.54
479.194	11.54
479.319	31.54
479.444	34.54
479.569	14.54
479.693	25.54
479.818	16.54
479.943	26.54
480.068	21.54
480.192	19.54
480.317	27.54
480.442	18.54
480.567	13.54
480.691	12.54
480.816	0.54
480.941	14.54
481.066	34.54
481.19	19.54
481.315	27.54
481.44	10.54
481.564	24.54
481.689	29.54
481.814	22.54
481.938	31.54
482.063	-4.46
482.188	7.54
482.313	25.54
482.437	22.54
482.562	17.54
482.687	22.54
482.811	13.54
482.936	25.54
483.061	18.54
483.185	19.54
483.31	38.54
483.435	21.54
483.559	3.54
483.684	20.54
483.808	32.54
483.933	40.54
484.058	19.54
484.182	12.54
484.307	-2.46
484.432	14.54
484.556	26.54
484.681	32.54
484.805	28.54
484.93	18.54
485.055	34.54
485.179	45.54
485.304	19.54
485.428	36.54
485.553	25.54
485.678	13.54
485.802	23.54
485.927	38.54
486.051	34.54
486.176	33.54
486.3	30.54
486.425	20.54
486.549	26.54
486.674	27.54
486.799	19.54
486.923	10.54
487.048	37.54
487.172	30.54
487.297	19.54
487.421	41.54
487.546	26.54
487.67	27.54
487.795	12.54
487.919	13.54
488.044	41.54
488.168	39.54
488.293	34.54
488.417	11.54
488.542	23.54
488.666	37.54
488.791	39.54
488.915	16.54
489.04	27.54
489.164	27.54
489.289	24.54
489.413	2.54
489.538	21.54
489.662	55.54
489.786	28.54
489.911	13.54
490.035	21.54
490.16	22.54
490.284	24.54
490.409	5.54
490.533	34.54
490.658	44.54
490.782	32.54
490.906	59.54
491.031	124.54
491.155	135.54
491.28	139.54
491.404	157.54
491.528	247.54
491.653	152.54
491.777	75.54
491.902	23.54
492.026	33.54
492.15	33.54
492.275	34.54
492.399	35.54
492.524	15.54
492.648	56.54
492.772	35.54
492.897	16.54
493.021	28.54
493.145	25.54
493.27	42.54
493.394	27.54
493.518	15.54
493.643	3.54
493.767	35.54
493.891	10.54
494.016	26.54
494.14	11.54
494.264	16.54
494.389	32.54
494.513	0.54
494.637	-1.46
494.762	20.54
494.886	17.54
495.01	28.54
495.134	16.54
495.259	43.54
495.383	28.54
495.507	36.54
495.632	35.54
495.756	55.54
495.88	41.54
496.004	27.54
496.129	25.54
496.253	22.54
496.377	31.54
496.501	40.54
496.626	8.54
496.75	23.54
496.874	17.54
496.998	7.54
497.123	33.54
497.247	20.54
497.371	7.54
497.495	8.54
497.62	29.54
497.744	23.54
497.868	17.54
497.992	5.54
498.116	25.54
498.241	25.54
498.365	18.54
498.489	16.54
498.613	26.54
498.737	12.54
498.862	34.54
498.986	18.54
499.11	19.54
499.234	9.54
499.358	16.54
499.482	23.54
499.607	29.54
499.731	28.54
499.855	38.54
499.979	23.54
500.103	6.54
500.227	21.54
500.351	32.54
500.476	31.54
500.6	15.54
500.724	36.54
500.848	22.54
500.972	35.54
501.096	35.54
501.22	39.54
501.344	22.54
501.469	13.54
501.593	21.54
501.717	7.54
501.841	19.54
501.965	33.54
502.089	24.54
502.213	43.54
502.337	20.54
502.461	19.54
502.585	21.54
502.709	27.54
502.834	20.54
502.958	39.54
503.082	28.54
503.206	26.54
503.33	34.54
503.454	31.54
503.578	28.54
503.702	36.54
503.826	33.54
503.95	35.54
504.074	29.54
504.198	34.54
504.322	9.54
504.446	15.54
504.57	27.54
504.694	24.54
504.818	28.54
504.942	43.54
505.066	15.54
505.19	19.54
505.314	26.54
505.438	28.54
505.562	17.54
505.686	31.54
505.81	15.54
505.934	28.54
506.058	38.54
506.182	31.54
506.306	24.54
506.43	13.54
506.554	19.54
506.678	31.54
506.802	27.54
506.926	19.54
507.05	31.54
507.174	35.54
507.298	33.54
507.422	32.54
507.546	15.54
507.67	38.54
507.794	-3.46
507.918	19.54
508.042	37.54
508.165	20.54
508.289	9.54
508.413	19.54
508.537	25.54
508.661	40.54
508.785	20.54
508.909	23.54
509.033	17.54
509.157	18.54
509.281	26.54
509.405	34.54
509.528	45.54
509.652	43.54
509.776	45.54
509.9	58.54
510.024	39.54
510.148	40.54
510.272	32.54
510.396	48.54
510.519	23.54
510.643	44.54
510.767	27.54
510.891	49.54
511.015	38.54
511.139	24.54
511.263	59.54
511.386	34.54
511.51	34.54
511.634	24.54
511.758	42.54
511.882	39.54
512.006	42.54
512.129	57.54
512.253	103.54
512.377	68.54
512.501	74.54
512.625	69.54
512.748	84.54
512.872	103.54
512.996	66.54
513.12	67.54
513.244	60.54
513.367	60.54
513.491	69.54
513.615	77.54
513.739	66.54
513.862	74.54
513.986	73.54
514.11	91.54
514.234	106.54
514.358	120.54
514.481	127.54
514.605	118.54
514.729	135.54
514.853	125.54
514.976	93.54
515.1	111.54
515.224	117.54
515.348	96.54
515.471	76.54
515.595	123.54
515.719	142.54
515.842	209.54
515.966	283.54
516.09	286.54
516.214	298.54
516.337	328.54
516.461	226.54
516.585	98.54
516.708	58.54
516.832	34.54
516.956	28.54
517.08	21.54
517.203	10.54
517.327	16.54
517.451	26.54
517.574	33.54
517.698	24.54
517.822	19.54
517.945	24.54
518.069	44.54
518.193	42.54
518.316	18.54
518.44	28.54
518.564	8.54
518.687	1.54
518.811	15.54
518.935	42.54
519.058	25.54
519.182	15.54
519.306	31.54
519.429	11.54
519.553	68.54
519.676	22.54
519.8	30.54
519.924	12.54
520.047	24.54
520.171	20.54
520.294	11.54
520.418	34.54
520.542	30.54
520.665	43.54
520.789	20.54
520.913	12.54
521.036	15.54
521.16	14.54
521.283	10.54
521.407	10.54
521.53	3.54
521.654	21.54
521.778	45.54
521.901	12.54
522.025	-3.46
522.148	2.54
522.272	21.54
522.395	16.54
522.519	30.54
522.643	12.54
522.766	20.54
522.89	29.54
523.013	34.54
523.137	14.54
523.26	13.54
523.384	35.54
523.507	24.54
523.631	28.54
523.754	19.54
523.878	14.54
524.002	-1.46
524.125	18.54
524.249	3.54
524.372	-7.46
524.496	13.54
524.619	32.54
524.743	22.54
524.866	17.54
524.99	17.54
525.113	19.54
525.237	19.54
525.36	8.54
525.484	14.54
525.607	26.54
525.731	11.54
525.854	28.54
525.978	24.54
526.101	4.54
526.224	14.54
526.348	30.54
526.471	14.54
526.595	17.54
526.718	14.54
526.842	18.54
526.965	33.54
527.089	11.54
527.212	12.54
527.336	13.54
527.459	22.54
527.582	14.54
527.706	19.54
527.829	15.54
527.953	26.54
528.076	-4.46
528.2	15.54
528.323	21.54
528.446	22.54
528.57	32.54
528.693	44.54
528.817	24.54
528.94	9.54
529.064	30.54
529.187	12.54
529.31	5.54
529.434	18.54
529.557	29.54
529.68	5.54
529.804	13.54
529.927	23.54
530.051	24.54
530.174	12.54
530.297	13.54
530.421	34.54
530.544	16.54
530.668	20.54
530.791	22.54
530.914	41.54
531.038	22.54
531.161	20.54
531.284	7.54
531.408	31.54
531.531	21.54
531.654	17.54
531.778	14.54
531.901	-8.46
532.024	31.54
532.148	26.54
532.271	29.54
532.394	20.54
532.518	18.54
532.641	19.54
532.764	38.54
532.888	17.54
533.011	11.54
533.134	22.54
533.258	51.54
533.381	17.54
533.504	19.54
533.628	34.54
533.751	26.54
533.874	23.54
533.997	27.54
534.121	2.54
534.244	19.54
534.367	5.54
534.491	28.54
534.614	19.54
534.737	36.54
534.86	28.54
534.984	19.54
535.107	18.54
535.23	23.54
535.354	29.54
535.477	20.54
535.6	18.54
535.723	16.54
535.847	40.54
535.97	21.54
536.093	28.54
536.216	14.54
536.34	19.54
536.463	28.54
536.586	45.54
536.709	31.54
536.833	30.54
536.956	10.54
537.079	19.54
537.202	25.54
537.325	23.54
537.449	20.54
537.572	22.54
537.695	7.54
537.818	22.54
537.941	25.54
538.065	9.54
538.188	25.54
538.311	31.54
538.434	36.54
538.558	32.54
538.681	36.54
538.804	21.54
538.927	22.54
539.05	34.54
539.173	8.54
539.297	10.54
539.42	30.54
539.543	23.54
539.666	28.54
539.789	28.54
539.913	30.54
540.036	30.54
540.159	19.54
540.282	27.54
540.405	-6.46
540.528	28.54
540.651	40.54
540.775	15.54
540.898	29.54
541.021	27.54
541.144	50.54
541.267	42.54
541.39	32.54
541.513	38.54
541.637	30.54
541.76	34.54
541.883	35.54
542.006	30.54
542.129	54.54
542.252	37.54
542.375	60.54
542.498	43.54
542.622	59.54
542.745	55.54
542.868	37.54
542.991	49.54
543.114	57.54
543.237	57.54
543.36	65.54
543.483	67.54
543.606	60.54
543.73	89.54
543.853	83.54
543.976	76.54
544.099	115.54
544.222	127.54
544.345	158.54
544.468	176.54
544.591	196.54
544.714	267.54
544.837	340.54
544.96	450.54
545.083	633.54
545.206	1050.54
545.329	2397.54
545.453	10830.54
545.576	15238.54
545.699	15685.54
545.822	15685.54
545.945	15685.54
546.068	15685.54
546.191	15685.54
546.314	15685.54
546.437	15685.54
546.56	15685.54
546.683	15685.54
546.806	15685.54
546.929	15685.54
547.052	15685.54
547.175	15685.54
547.298	15685.54
547.421	15685.54
547.544	15685.54
547.667	3418.54
547.79	1787.54
547.913	929.54
548.036	855.54
548.159	617.54
548.282	611.54
548.405	461.54
548.528	488.54
548.651	381.54
548.774	395.54
548.897	343.54
549.02	360.54
549.143	340.54
549.266	312.54
549.389	284.54
549.512	274.54
549.635	259.54
549.758	243.54
549.881	218.54
550.004	219.54
550.127	222.54
550.25	198.54
550.373	166.54
550.496	190.54
550.619	168.54
550.742	142.54
550.865	144.54
550.988	153.54
551.111	156.54
551.234	155.54
551.356	122.54
551.479	124.54
551.602	125.54
551.725	126.54
551.848	132.54
551.971	138.54
552.094	120.54
552.217	122.54
552.34	121.54
552.463	96.54
552.586	109.54
552.709	115.54
552.832	94.54
552.955	113.54
553.077	126.54
553.2	111.54
553.323	91.54
553.446	116.54
553.569	93.54
553.692	107.54
553.815	105.54
553.938	100.54
554.061	116.54
554.184	87.54
554.306	87.54
554.429	82.54
554.552	98.54
554.675	67.54
554.798	80.54
554.921	87.54
555.044	90.54
555.167	64.54
555.29	76.54
555.412	86.54
555.535	70.54
555.658	73.54
555.781	86.54
555.904	66.54
556.027	84.54
556.15	78.54
556.272	80.54
556.395	83.54
556.518	62.54
556.641	71.54
556.764	90.54
556.887	63.54
557.01	60.54
557.132	66.54
557.255	64.54
557.378	67.54
557.501	59.54
557.624	64.54
557.747	82.54
557.869	77.54
557.992	84.54
558.115	97.54
558.238	93.54
558.361	83.54
558.483	90.54
558.606	63.54
558.729	57.54
558.852	81.54
558.975	88.54
559.098	61.54
559.22	51.54
559.343	55.54
559.466	51.54
559.589	49.54
559.712	55.54
559.834	71.54
559.957	52.54
560.08	50.54
560.203	60.54
560.325	43.54
560.448	47.54
560.571	36.54
560.694	55.54
560.817	67.54
560.939	57.54
561.062	60.54
561.185	69.54
561.308	66.54
561.43	48.54
561.553	46.54
561.676	51.54
561.799	72.54
561.921	62.54
562.044	49.54
562.167	74.54
562.29	77.54
562.413	74.54
562.535	72.54
562.658	33.54
562.781	63.54
562.903	55.54
563.026	77.54
563.149	126.54
563.272	121.54
563.394	125.54
563.517	114.54
563.64	78.54
563.763	52.54
563.885	40.54
564.008	50.54
564.131	50.54
564.254	37.54
564.376	44.54
564.499	10.54
564.622	45.54
564.744	33.54
564.867	22.54
564.99	31.54
565.113	37.54
565.235	49.54
565.358	41.54
565.481	37.54
565.603	37.54
565.726	39.54
565.849	55.54
565.971	49.54
566.094	33.54
566.217	45.54
566.34	44.54
566.462	35.54
566.585	33.54
566.708	33.54
566.83	23.54
566.953	39.54
567.076	48.54
567.198	35.54
567.321	31.54
567.444	45.54
567.566	24.54
567.689	16.54
567.812	48.54
567.934	47.54
568.057	37.54
568.18	49.54
568.302	36.54
568.425	25.54
568.548	21.54
568.67	54.54
568.793	23.54
568.916	37.54
569.038	35.54
569.161	29.54
569.283	39.54
569.406	34.54
569.529	18.54
569.651	13.54
569.774	8.54
569.897	34.54
570.019	38.54
570.142	51.54
570.265	39.54
570.387	68.54
570.51	60.54
570.632	47.54
570.755	15.54
570.878	18.54
571	38.54
571.123	48.54
571.246	40.54
571.368	43.54
571.491	36.54
571.613	24.54
571.736	13.54
571.859	44.54
571.981	25.54
572.104	32.54
572.226	37.54
572.349	14.54
572.472	41.54
572.594	39.54
572.717	43.54
572.839	24.54
572.962	41.54
573.085	36.54
573.207	21.54
573.33	31.54
573.452	36.54
573.575	56.54
573.697	32.54
573.82	22.54
573.943	23.54
574.065	49.54
574.188	40.54
574.31	53.54
574.433	52.54
574.555	60.54
574.678	36.54
574.801	48.54
574.923	35.54
575.046	40.54
575.168	28.54
575.291	44.54
575.413	66.54
575.536	40.54
575.659	57.54
575.781	36.54
575.904	42.54
576.026	71.54
576.149	71.54
576.271	123.54
576.394	189.54
576.516	528.54
576.639	3613.54
576.761	10072.54
576.884	8675.54
577.007	8603.54
577.129	7883.54
577.252	3680.54
577.374	1290.54
577.497	512.54
577.619	272.54
577.742	159.54
577.864	152.54
577.987	127.54
578.109	143.54
578.232	139.54
578.354	171.54
578.477	187.54
578.599	390.54
578.722	1914.54
578.844	8967.54
578.967	9691.54
579.089	8647.54
579.212	8935.54
579.334	5187.54
579.457	1905.54
579.579	726.54
579.702	347.54
579.824	201.54
579.947	131.54
580.069	86.54
580.192	69.54
580.314	95.54
580.437	87.54
580.559	96.54
580.682	63.54
580.804	82.54
580.927	61.54
581.049	72.54
581.172	46.54
581.294	49.54
581.417	71.54
581.539	50.54
581.662	42.54
581.784	44.54
581.907	43.54
582.029	47.54
582.152	26.54
582.274	47.54
582.396	38.54
582.519	31.54
582.641	28.54
582.764	30.54
582.886	36.54
583.009	59.54
583.131	38.54
583.254	26.54
583.376	47.54
583.499	36.54
583.621	38.54
583.743	58.54
583.866	58.54
583.988	62.54
584.111	39.54
584.233	28.54
584.356	35.54
584.478	25.54
584.601	27.54
584.723	25.54
584.845	54.54
584.968	28.54
585.09	16.54
585.213	45.54
585.335	32.54
585.458	28.54
585.58	16.54
585.702	39.54
585.825	37.54
585.947	12.54
586.07	23.54
586.192	28.54
586.315	44.54
586.437	19.54
586.559	35.54
586.682	29.54
586.804	38.54
586.927	32.54
587.049	38.54
587.171	28.54
587.294	36.54
587.416	50.54
587.539	33.54
587.661	34.54
587.783	32.54
587.906	13.54
588.028	38.54
588.151	48.54
588.273	62.54
588.395	35.54
588.518	16.54
588.64	22.54
588.763	41.54
588.885	30.54
589.007	33.54
589.13	22.54
589.252	10.54
589.375	19.54
589.497	24.54
589.619	37.54
589.742	36.54
589.864	38.54
589.986	28.54
590.109	31.54
590.231	16.54
590.354	17.54
590.476	6.54
590.598	20.54
590.721	17.54
590.843	29.54
590.965	36.54
591.088	56.54
591.21	26.54
591.332	35.54
591.455	-3.46
591.577	14.54
591.7	22.54
591.822	35.54
591.944	30.54
592.067	22.54
592.189	28.54
592.311	25.54
592.434	17.54
592.556	40.54
592.678	31.54
592.801	38.54
592.923	21.54
593.045	26.54
593.168	33.54
593.29	10.54
593.412	32.54
593.535	6.54
593.657	29.54
593.779	18.54
593.902	28.54
594.024	39.54
594.146	30.54
594.269	12.54
594.391	15.54
594.513	43.54
594.636	24.54
594.758	6.54
594.88	23.54
595.003	20.54
595.125	3.54
595.247	30.54
595.37	37.54
595.492	17.54
595.614	14.54
595.737	43.54
595.859	42.54
595.981	26.54
596.104	10.54
596.226	22.54
596.348	31.54
596.471	24.54
596.593	33.54
596.715	20.54
596.838	13.54
596.96	25.54
597.082	23.54
597.204	30.54
597.327	34.54
597.449	29.54
597.571	30.54
597.694	43.54
597.816	34.54
597.938	19.54
598.061	23.54
598.183	11.54
598.305	34.54
598.427	33.54
598.55	19.54
598.672	49.54
598.794	40.54
598.917	2.54
599.039	13.54
599.161	19.54
599.283	14.54
599.406	37.54
599.528	28.54
599.65	44.54
599.773	30.54
599.895	47.54
600.017	50.54
600.139	29.54
600.262	2.54
600.384	36.54
600.506	21.54
600.628	58.54
600.751	39.54
600.873	24.54
600.995	17.54
601.118	38.54
601.24	17.54
601.362	53.54
601.484	29.54
601.607	23.54
601.729	15.54
601.851	37.54
601.973	21.54
602.096	34.54
602.218	38.54
602.34	37.54
602.462	40.54
602.585	29.54
602.707	4.54
602.829	27.54
602.951	26.54
603.074	10.54
603.196	27.54
603.318	19.54
603.44	35.54
603.563	18.54
603.685	3.54
603.807	31.54
603.929	16.54
604.052	34.54
604.174	24.54
604.296	36.54
604.418	47.54
604.541	34.54
604.663	11.54
604.785	7.54
604.907	13.54
605.03	7.54
605.152	51.54
605.274	34.54
605.396	37.54
605.519	2.54
605.641	20.54
605.763	14.54
605.885	30.54
606.008	20.54
606.13	35.54
606.252	43.54
606.374	27.54
606.496	9.54
606.619	23.54
606.741	11.54
606.863	36.54
606.985	18.54
607.108	34.54
607.23	36.54
607.352	16.54
607.474	14.54
607.596	23.54
607.719	19.54
607.841	31.54
607.963	15.54
608.085	20.54
608.207	52.54
608.33	19.54
608.452	23.54
608.574	22.54
608.696	28.54
608.819	6.54
608.941	34.54
609.063	13.54
609.185	7.54
609.307	19.54
609.43	39.54
609.552	36.54
609.674	23.54
609.796	28.54
609.918	41.54
610.041	26.54
610.163	30.54
610.285	22.54
610.407	24.54
610.529	23.54
610.652	45.54
610.774	46.54
610.896	36.54
611.018	27.54
611.14	43.54
611.263	3.54
611.385	17.54
611.507	34.54
611.629	24.54
611.751	34.54
611.873	62.54
611.996	27.54
612.118	28.54
612.24	22.54
612.362	30.54
612.484	59.54
612.607	43.54
612.729	42.54
612.851	51.54
612.973	23.54
613.095	17.54
613.218	30.54
613.34	34.54
613.462	19.54
613.584	26.54
613.706	19.54
613.828	49.54
613.951	24.54
614.073	23.54
614.195	12.54
614.317	28.54
614.439	24.54
614.561	26.54
614.684	30.54
614.806	26.54
614.928	34.54
615.05	8.54
615.172	39.54
615.294	38.54
615.417	33.54
615.539	22.54
615.661	12.54
615.783	28.54
615.905	10.54
616.027	26.54
616.15	49.54
616.272	30.54
616.394	36.54
616.516	23.54
616.638	21.54
616.76	36.54
616.883	39.54
617.005	26.54
617.127	20.54
617.249	17.54
617.371	30.54
617.493	39.54
617.615	31.54
617.738	26.54
617.86	36.54
617.982	24.54
618.104	15.54
618.226	0.54
618.348	18.54
618.471	34.54
618.593	38.54
618.715	18.54
618.837	28.54
618.959	31.54
619.081	50.54
619.203	30.54
619.326	20.54
619.448	35.54
619.57	44.54
619.692	27.54
619.814	28.54
619.936	40.54
620.058	36.54
620.181	24.54
620.303	23.54
620.425	31.54
620.547	18.54
620.669	27.54
620.791	6.54
620.913	22.54
621.036	13.54
621.158	23.54
621.28	24.54
621.402	-2.46
621.524	10.54
621.646	18.54
621.768	3.54
621.891	-10.46
622.013	27.54
622.135	17.54
622.257	9.54
622.379	29.54
622.501	22.54
622.623	24.54
622.745	17.54
622.868	21.54
622.99	15.54
623.112	11.54
623.234	16.54
623.356	18.54
623.478	8.54
623.6	30.54
623.722	20.54
623.845	26.54
623.967	9.54
624.089	34.54
624.211	23.54
624.333	30.54
624.455	25.54
624.577	14.54
624.699	29.54
624.822	36.54
624.944	16.54
625.066	12.54
625.188	10.54
625.31	8.54
625.432	21.54
625.554	11.54
625.676	35.54
625.799	28.54
625.921	11.54
626.043	10.54
626.165	27.54
626.287	5.54
626.409	33.54
626.531	9.54
626.653	18.54
626.775	39.54
626.898	28.54
627.02	31.54
627.142	34.54
627.264	32.54
627.386	0.54
627.508	23.54
627.63	25.54
627.752	31.54
627.874	20.54
627.997	38.54
628.119	36.54
628.241	26.54
628.363	16.54
628.485	25.54
628.607	18.54
628.729	9.54
628.851	7.54
628.973	16.54
629.096	4.54
629.218	9.54
629.34	10.54
629.462	17.54
629.584	8.54
629.706	20.54
629.828	42.54
629.95	16.54
630.072	15.54
630.195	16.54
630.317	21.54
630.439	23.54
630.561	9.54
630.683	8.54
630.805	30.54
630.927	46.54
631.049	9.54
631.171	-1.46
631.293	16.54
631.416	26.54
631.538	26.54
631.66	17.54
631.782	20.54
631.904	38.54
632.026	7.54
632.148	27.54
632.27	-11.46
632.392	10.54
632.514	31.54
632.637	23.54
632.759	14.54
632.881	27.54
633.003	22.54
633.125	12.54
633.247	-5.46
633.369	10.54
633.491	11.54
633.613	32.54
633.735	8.54
633.858	22.54
633.98	22.54
634.102	4.54
634.224	24.54
634.346	18.54
634.468	6.54
634.59	15.54
634.712	23.54
634.834	24.54
634.956	15.54
635.078	-6.46
635.201	14.54
635.323	13.54
635.445	3.54
635.567	14.54
635.689	10.54
635.811	17.54
635.933	18.54
636.055	4.54
636.177	9.54
636.299	19.54
636.421	7.54
636.544	6.54
636.666	36.54
636.788	15.54
636.91	13.54
637.032	18.54
637.154	17.54
637.276	38.54
637.398	29.54
637.52	20.54
637.642	18.54
637.764	13.54
637.887	10.54
638.009	20.54
638.131	17.54
638.253	10.54
638.375	26.54
638.497	36.54
638.619	3.54
638.741	32.54
638.863	12.54
638.985	17.54
639.107	16.54
639.23	8.54
639.352	19.54
639.474	11.54
639.596	23.54
639.718	11.54
639.84	22.54
639.962	30.54
640.084	35.54
640.206	22.54
640.328	6.54
640.45	22.54
640.573	31.54
640.695	28.54
640.817	26.54
640.939	18.54
641.061	4.54
641.183	-3.46
641.305	26.54
641.427	13.54
641.549	8.54
641.671	7.54
641.793	9.54
641.915	10.54
642.038	16.54
642.16	24.54
642.282	19.54
642.404	13.54
642.526	20.54
642.648	4.54
642.77	17.54
642.892	11.54
643.014	26.54
643.136	27.54
643.258	22.54
643.381	28.54
643.503	33.54
643.625	16.54
643.747	-0.46
643.869	-2.46
643.991	11.54
644.113	26.54
644.235	15.54
644.357	11.54
644.479	17.54
644.601	17.54
644.723	-2.46
644.846	3.54
644.968	13.54
645.09	17.54
645.212	6.54
645.334	14.54
645.456	14.54
645.578	18.54
645.7	18.54
645.822	13.54
645.944	9.54
646.066	12.54
646.188	19.54
646.311	26.54
646.433	2.54
646.555	32.54
646.677	18.54
646.799	2.54
646.921	21.54
647.043	22.54
647.165	2.54
647.287	14.54
647.409	19.54
647.531	43.54
647.654	-5.46
647.776	21.54
647.898	27.54
648.02	14.54
648.142	2.54
648.264	6.54
648.386	15.54
648.508	12.54
648.63	14.54
648.752	22.54
648.874	24.54
648.997	3.54
649.119	41.54
649.241	19.54
649.363	33.54
649.485	41.54
649.607	11.54
649.729	-3.46
649.851	28.54
649.973	27.54
650.095	17.54
650.217	8.54
650.34	-0.46
650.462	31.54
650.584	15.54
650.706	22.54
650.828	29.54
650.95	1.54
651.072	20.54
651.194	2.54
651.316	7.54
651.438	11.54
651.56	20.54
651.683	6.54
651.805	3.54
651.927	13.54
652.049	8.54
652.171	16.54
652.293	18.54
652.415	-1.46
652.537	-2.46
652.659	13.54
652.781	12.54
652.903	34.54
653.026	42.54
653.148	10.54
653.27	13.54
653.392	19.54
653.514	5.54
653.636	14.54
653.758	10.54
653.88	6.54
654.002	6.54
654.124	23.54
654.247	14.54
654.369	29.54
654.491	12.54
654.613	17.54
654.735	8.54
654.857	11.54
654.979	19.54
655.101	29.54
655.223	42.54
655.345	13.54
655.468	27.54
655.59	24.54
655.712	27.54
655.834	4.54
655.956	20.54
656.078	24.54
656.2	34.54
656.322	19.54
656.444	2.54
656.566	19.54
656.689	2.54
656.811	16.54
656.933	32.54
657.055	-8.46
657.177	-2.46
657.299	8.54
657.421	27.54
657.543	31.54
657.665	13.54
657.787	12.54
657.91	11.54
658.032	5.54
658.154	7.54
658.276	17.54
658.398	-9.46
658.52	8.54
658.642	30.54
658.764	8.54
658.886	-19.46
659.009	-8.46
659.131	14.54
659.253	28.54
659.375	29.54
659.497	7.54
659.619	29.54
659.741	13.54
659.863	25.54
659.985	6.54
660.108	30.54
660.23	18.54
660.352	23.54
660.474	31.54
660.596	29.54
660.718	24.54
660.84	28.54
660.962	11.54
661.084	-1.46
661.207	7.54
661.329	18.54
661.451	6.54
661.573	27.54
661.695	27.54
661.817	33.54
661.939	36.54
662.061	38.54
662.184	-4.46
662.306	2.54
662.428	30.54
662.55	35.54
662.672	9.54
662.794	12.54
662.916	5.54
663.038	3.54
663.161	31.54
663.283	22.54
663.405	7.54
663.527	26.54
663.649	24.54
663.771	3.54
663.893	8.54
664.015	15.54
664.138	-3.46
664.26	6.54
664.382	7.54
664.504	14.54
664.626	-2.46
664.748	12.54
664.87	-7.46
664.992	16.54
665.115	27.54
665.237	10.54
665.359	12.54
665.481	27.54
665.603	4.54
665.725	18.54
665.847	-8.46
665.97	13.54
666.092	24.54
666.214	24.54
666.336	15.54
666.458	22.54
666.58	28.54
666.702	10.54
666.825	12.54
666.947	-8.46
667.069	16.54
667.191	24.54
667.313	30.54
667.435	6.54
667.557	14.54
667.68	-12.46
667.802	-0.46
667.924	5.54
668.046	16.54
668.168	12.54
668.29	12.54
668.412	4.54
668.535	3.54
668.657	7.54
668.779	3.54
668.901	8.54
669.023	-9.46
669.145	-8.46
669.267	19.54
669.39	7.54
669.512	19.54
669.634	20.54
669.756	9.54
669.878	19.54
670	17.54
670.123	12.54
670.245	24.54
670.367	24.54
670.489	14.54
670.611	-3.46
670.733	4.54
670.856	-6.46
670.978	24.54
671.1	20.54
671.222	23.54
671.344	3.54
671.466	0.54
671.589	10.54
671.711	10.54
671.833	4.54
671.955	19.54
672.077	5.54
672.199	30.54
672.322	11.54
672.444	9.54
672.566	23.54
672.688	15.54
672.81	17.54
672.932	20.54
673.055	0.54
673.177	9.54
673.299	13.54
673.421	-13.46
673.543	10.54
673.665	24.54
673.788	34.54
673.91	-2.46
674.032	-8.46
674.154	6.54
674.276	10.54
674.399	-7.46
674.521	-4.46
674.643	6.54
674.765	14.54
674.887	21.54
675.009	24.54
675.132	12.54
675.254	0.54
675.376	8.54
675.498	7.54
675.62	27.54
675.743	10.54
675.865	24.54
675.987	9.54
676.109	15.54
676.231	8.54
676.354	18.54
676.476	6.54
676.598	11.54
676.72	16.54
676.842	8.54
676.965	3.54
677.087	24.54
677.209	16.54
677.331	17.54
677.453	22.54
677.576	14.54
677.698	12.54
677.82	23.54
677.942	-4.46
678.064	12.54
678.187	11.54
678.309	1.54
678.431	20.54
678.553	13.54
678.675	18.54
678.798	24.54
678.92	10.54
679.042	22.54
679.164	2.54
679.286	10.54
679.409	12.54
679.531	-9.46
679.653	6.54
679.775	10.54
679.898	-0.46
680.02	17.54
680.142	1.54
680.264	20.54
680.386	-4.46
680.509	2.54
680.631	20.54
680.753	16.54
680.875	-2.46
680.998	30.54
681.12	4.54
681.242	24.54
681.364	-1.46
681.486	7.54
681.609	16.54
681.731	-16.46
681.853	2.54
681.975	8.54
682.098	26.54
682.22	28.54
682.342	16.54
682.464	30.54
682.587	6.54
682.709	4.54
682.831	-12.46
682.953	1.54
683.076	8.54
683.198	24.54
683.32	14.54
683.442	18.54
683.565	14.54
683.687	6.54
683.809	1.54
683.931	-2.46
684.054	24.54
684.176	18.54
684.298	4.54
684.42	-1.46
684.543	8.54
684.665	24.54
684.787	11.54
684.909	5.54
685.032	20.54
685.154	7.54
685.276	8.54
685.398	0.54
685.521	-5.46
685.643	18.54
685.765	16.54
685.887	6.54
686.01	12.54
686.132	1.54
686.254	13.54
686.377	18.54
686.499	8.54
686.621	23.54
686.743	7.54
686.866	0.54
686.988	30.54
687.11	0.54
687.232	10.54
687.355	7.54
687.477	21.54
687.599	25.54
687.722	3.54
687.844	20.54
687.966	9.54
688.088	10.54
688.211	36.54
688.333	23.54
688.455	11.54
688.578	28.54
688.7	20.54
688.822	15.54
688.944	1.54
689.067	50.54
689.189	1.54
689.311	6.54
689.434	13.54
689.556	18.54
689.678	22.54
689.801	15.54
689.923	16.54
690.045	15.54
690.167	36.54
690.29	19.54
690.412	6.54
690.534	21.54
690.657	12.54
690.779	-2.46
690.901	16.54
691.024	12.54
691.146	5.54
691.268	14.54
691.391	16.54
691.513	26.54
691.635	23.54
691.758	24.54
691.88	27.54
692.002	3.54
692.125	16.54
692.247	12.54
692.369	4.54
692.492	20.54
692.614	-3.46
692.736	-15.46
692.859	1.54
692.981	11.54
693.103	12.54
693.226	10.54
693.348	27.54
693.47	9.54
693.593	35.54
693.715	46.54
693.837	34.54
693.96	26.54
694.082	20.54
694.204	14.54
694.327	17.54
694.449	-13.46
694.571	16.54
694.694	26.54
694.816	10.54
694.938	-7.46
695.061	12.54
695.183	10.54
695.305	-5.46
695.428	10.54
695.55	8.54
695.672	16.54
695.795	32.54
695.917	34.54
696.04	2.54
696.162	11.54
696.284	26.54
696.407	-7.46
696.529	19.54
696.651	29.54
696.774	13.54
696.896	24.54
697.019	18.54
697.141	16.54
697.263	18.54
697.386	16.54
697.508	4.54
697.63	14.54
697.753	31.54
697.875	26.54
697.998	14.54
698.12	17.54
698.242	24.54
698.365	11.54
698.487	11.54
698.61	11.54
698.732	19.54
698.854	22.54
698.977	24.54
699.099	24.54
699.221	6.54
699.344	11.54
699.466	15.54
699.589	20.54
699.711	14.54
699.834	2.54
699.956	16.54
700.078	6.54
700.201	10.54
700.323	1.54
700.446	11.54
700.568	5.54
700.69	20.54
700.813	12.54
700.935	19.54
701.058	-2.46
701.18	23.54
701.302	5.54
701.425	13.54
701.547	2.54
701.67	13.54
701.792	11.54
701.915	3.54
702.037	-3.46
702.159	7.54
702.282	12.54
702.404	12.54
702.527	8.54
702.649	31.54
702.772	9.54
702.894	6.54
703.017	-0.46
703.139	18.54
703.261	28.54
703.384	15.54
703.506	-9.46
703.629	12.54
703.751	18.54
703.874	9.54
703.996	16.54
704.119	4.54
704.241	24.54
704.364	-0.46
704.486	13.54
704.608	19.54
704.731	19.54
704.853	27.54
704.976	2.54
705.098	17.54
705.221	7.54
705.343	20.54
705.466	21.54
705.588	26.54
705.711	14.54
705.833	22.54
705.956	-0.46
706.078	29.54
706.201	13.54
706.323	20.54
706.446	18.54
