Data from LowRes_mercury_15_20_11_07_2024_HR4C61881__3__15-23-32-571.txt Node

Date: Thu Nov 07 15:23:32 EST 2024
User: crc00042
Spectrometer: HR4C6188
Trigger mode: 4
Integration Time (sec): 1.000000E-1
Scans to average: 1
Electric dark correction enabled: true
Nonlinearity correction enabled: false
Boxcar width: 0
XAxis mode: Wavelengths
Number of Pixels in Spectrum: 3648
>>>>>Begin Spectral Data<<<<<
245.66	-55.46
245.797	-55.46
245.934	-55.46
246.071	-62.46
246.208	11.54
246.344	0.54
246.481	-13.46
246.618	-15.46
246.755	-0.46
246.892	7.54
247.029	-6.46
247.165	-17.46
247.302	8.54
247.439	16.54
247.576	14.54
247.713	-13.46
247.849	31.54
247.986	-12.46
248.123	10.54
248.26	-1.46
248.396	20.54
248.533	13.54
248.67	1.54
248.806	0.54
248.943	2.54
249.08	12.54
249.216	5.54
249.353	-5.46
249.49	2.54
249.626	8.54
249.763	-7.46
249.9	-9.46
250.036	2.54
250.173	0.54
250.309	-2.46
250.446	18.54
250.582	7.54
250.719	1.54
250.856	3.54
250.992	-0.46
251.129	1.54
251.265	-4.46
251.402	-0.46
251.538	-4.46
251.675	9.54
251.811	21.54
251.948	21.54
252.084	10.54
252.221	-18.46
252.357	2.54
252.493	26.54
252.63	10.54
252.766	27.54
252.903	11.54
253.039	15.54
253.175	1.54
253.312	14.54
253.448	5.54
253.585	-17.46
253.721	15.54
253.857	3.54
253.994	4.54
254.13	7.54
254.266	13.54
254.403	-1.46
254.539	16.54
254.675	17.54
254.811	10.54
254.948	15.54
255.084	3.54
255.22	-20.46
255.356	3.54
255.493	13.54
255.629	15.54
255.765	21.54
255.901	29.54
256.037	-1.46
256.174	20.54
256.31	7.54
256.446	-10.46
256.582	-8.46
256.718	5.54
256.854	3.54
256.991	21.54
257.127	15.54
257.263	8.54
257.399	12.54
257.535	-10.46
257.671	21.54
257.807	-12.46
257.943	-27.46
258.079	-13.46
258.215	10.54
258.351	30.54
258.487	8.54
258.623	14.54
258.759	-1.46
258.895	-1.46
259.031	-11.46
259.167	-7.46
259.303	16.54
259.439	9.54
259.575	-11.46
259.711	4.54
259.847	-2.46
259.983	18.54
260.119	0.54
260.255	21.54
260.391	-1.46
260.527	15.54
260.663	10.54
260.799	0.54
260.934	10.54
261.07	-2.46
261.206	-15.46
261.342	-16.46
261.478	20.54
261.614	13.54
261.749	-0.46
261.885	-1.46
262.021	-1.46
262.157	16.54
262.293	-13.46
262.428	-1.46
262.564	-9.46
262.7	12.54
262.836	-0.46
262.971	18.54
263.107	19.54
263.243	32.54
263.378	12.54
263.514	-0.46
263.65	-11.46
263.785	-13.46
263.921	-0.46
264.057	3.54
264.192	13.54
264.328	22.54
264.464	-15.46
264.599	2.54
264.735	12.54
264.871	-3.46
265.006	29.54
265.142	7.54
265.277	5.54
265.413	-8.46
265.548	17.54
265.684	15.54
265.819	-3.46
265.955	-1.46
266.091	-7.46
266.226	-21.46
266.362	-4.46
266.497	4.54
266.633	-1.46
266.768	-8.46
266.903	17.54
267.039	15.54
267.174	18.54
267.31	-4.46
267.445	12.54
267.581	12.54
267.716	21.54
267.851	32.54
267.987	13.54
268.122	29.54
268.258	-3.46
268.393	-6.46
268.528	16.54
268.664	1.54
268.799	-14.46
268.934	23.54
269.07	-5.46
269.205	8.54
269.34	14.54
269.476	16.54
269.611	10.54
269.746	20.54
269.881	25.54
270.017	22.54
270.152	-1.46
270.287	15.54
270.422	19.54
270.558	3.54
270.693	17.54
270.828	-1.46
270.963	-4.46
271.098	-6.46
271.234	-8.46
271.369	25.54
271.504	21.54
271.639	14.54
271.774	7.54
271.909	0.54
272.045	-19.46
272.18	9.54
272.315	14.54
272.45	30.54
272.585	-3.46
272.72	-1.46
272.855	10.54
272.99	21.54
273.125	-0.46
273.26	-10.46
273.395	5.54
273.53	-9.46
273.665	32.54
273.8	-0.46
273.935	-3.46
274.07	4.54
274.205	13.54
274.34	-1.46
274.475	12.54
274.61	18.54
274.745	-1.46
274.88	10.54
275.015	-11.46
275.15	6.54
275.285	12.54
275.42	-2.46
275.555	17.54
275.69	15.54
275.825	10.54
275.959	17.54
276.094	11.54
276.229	-0.46
276.364	7.54
276.499	-3.46
276.634	3.54
276.768	-1.46
276.903	-4.46
277.038	17.54
277.173	12.54
277.308	11.54
277.442	13.54
277.577	-3.46
277.712	-9.46
277.847	2.54
277.981	17.54
278.116	-13.46
278.251	10.54
278.386	-1.46
278.52	21.54
278.655	9.54
278.79	3.54
278.924	-1.46
279.059	22.54
279.194	-2.46
279.328	14.54
279.463	20.54
279.598	29.54
279.732	26.54
279.867	10.54
280.001	24.54
280.136	11.54
280.271	10.54
280.405	16.54
280.54	-1.46
280.674	-5.46
280.809	23.54
280.943	9.54
281.078	8.54
281.213	10.54
281.347	2.54
281.482	14.54
281.616	-5.46
281.751	3.54
281.885	-11.46
282.02	2.54
282.154	1.54
282.288	-27.46
282.423	-2.46
282.557	3.54
282.692	23.54
282.826	23.54
282.961	12.54
283.095	6.54
283.229	-4.46
283.364	8.54
283.498	3.54
283.633	31.54
283.767	11.54
283.901	16.54
284.036	3.54
284.17	8.54
284.304	10.54
284.439	21.54
284.573	3.54
284.707	21.54
284.842	-12.46
284.976	-0.46
285.11	-14.46
285.244	4.54
285.379	43.54
285.513	13.54
285.647	18.54
285.781	13.54
285.916	19.54
286.05	12.54
286.184	16.54
286.318	13.54
286.453	-4.46
286.587	-13.46
286.721	-4.46
286.855	12.54
286.989	15.54
287.123	-0.46
287.258	-2.46
287.392	-8.46
287.526	25.54
287.66	13.54
287.794	1.54
287.928	18.54
288.062	20.54
288.196	3.54
288.33	-6.46
288.464	12.54
288.598	29.54
288.733	13.54
288.867	32.54
289.001	31.54
289.135	-1.46
289.269	2.54
289.403	16.54
289.537	12.54
289.671	24.54
289.805	-2.46
289.939	17.54
290.073	9.54
290.207	22.54
290.34	15.54
290.474	27.54
290.608	18.54
290.742	1.54
290.876	4.54
291.01	3.54
291.144	12.54
291.278	13.54
291.412	28.54
291.546	-3.46
291.679	11.54
291.813	0.54
291.947	31.54
292.081	-0.46
292.215	0.54
292.349	14.54
292.482	11.54
292.616	-4.46
292.75	12.54
292.884	6.54
293.018	-6.46
293.151	-10.46
293.285	5.54
293.419	-13.46
293.553	-9.46
293.686	9.54
293.82	21.54
293.954	27.54
294.088	23.54
294.221	-3.46
294.355	11.54
294.489	28.54
294.622	6.54
294.756	19.54
294.89	19.54
295.023	18.54
295.157	24.54
295.291	13.54
295.424	9.54
295.558	18.54
295.691	5.54
295.825	4.54
295.959	14.54
296.092	-4.46
296.226	3.54
296.359	-11.46
296.493	-2.46
296.627	16.54
296.76	-4.46
296.894	-7.46
297.027	-2.46
297.161	7.54
297.294	-12.46
297.428	12.54
297.561	18.54
297.695	-3.46
297.828	-20.46
297.962	2.54
298.095	11.54
298.229	26.54
298.362	12.54
298.495	-8.46
298.629	-3.46
298.762	4.54
298.896	8.54
299.029	-11.46
299.162	14.54
299.296	7.54
299.429	-4.46
299.563	21.54
299.696	20.54
299.829	11.54
299.963	5.54
300.096	20.54
300.229	26.54
300.363	5.54
300.496	-7.46
300.629	-6.46
300.763	-11.46
300.896	11.54
301.029	6.54
301.162	21.54
301.296	-14.46
301.429	13.54
301.562	-18.46
301.695	-5.46
301.829	-2.46
301.962	17.54
302.095	-0.46
302.228	-6.46
302.362	18.54
302.495	-5.46
302.628	6.54
302.761	1.54
302.894	4.54
303.027	25.54
303.161	-3.46
303.294	4.54
303.427	14.54
303.56	25.54
303.693	-5.46
303.826	-6.46
303.959	0.54
304.092	-3.46
304.225	-2.46
304.359	1.54
304.492	-9.46
304.625	-5.46
304.758	24.54
304.891	-6.46
305.024	0.54
305.157	2.54
305.29	4.54
305.423	14.54
305.556	9.54
305.689	14.54
305.822	-4.46
305.955	17.54
306.088	7.54
306.221	4.54
306.354	-8.46
306.487	-13.46
306.62	-5.46
306.752	-8.46
306.885	11.54
307.018	12.54
307.151	11.54
307.284	16.54
307.417	4.54
307.55	5.54
307.683	6.54
307.816	9.54
307.948	-3.46
308.081	19.54
308.214	-1.46
308.347	23.54
308.48	-10.46
308.613	-2.46
308.745	21.54
308.878	-16.46
309.011	12.54
309.144	3.54
309.277	-3.46
309.409	21.54
309.542	1.54
309.675	-4.46
309.808	-0.46
309.94	9.54
310.073	4.54
310.206	11.54
310.339	13.54
310.471	-1.46
310.604	21.54
310.737	9.54
310.869	16.54
311.002	2.54
311.135	-11.46
311.267	-7.46
311.4	4.54
311.533	33.54
311.665	11.54
311.798	9.54
311.93	10.54
312.063	23.54
312.196	59.54
312.328	96.54
312.461	59.54
312.593	37.54
312.726	47.54
312.859	87.54
312.991	171.54
313.124	54.54
313.256	20.54
313.389	14.54
313.521	9.54
313.654	6.54
313.786	4.54
313.919	11.54
314.051	5.54
314.184	3.54
314.316	-1.46
314.449	-4.46
314.581	-21.46
314.714	-14.46
314.846	13.54
314.978	-6.46
315.111	4.54
315.243	13.54
315.376	16.54
315.508	8.54
315.641	31.54
315.773	16.54
315.905	16.54
316.038	-0.46
316.17	-0.46
316.302	20.54
316.435	21.54
316.567	18.54
316.699	36.54
316.832	3.54
316.964	1.54
317.096	8.54
317.229	-12.46
317.361	-11.46
317.493	9.54
317.625	-2.46
317.758	10.54
317.89	19.54
318.022	16.54
318.155	-1.46
318.287	9.54
318.419	1.54
318.551	9.54
318.683	16.54
318.816	10.54
318.948	4.54
319.08	-1.46
319.212	-9.46
319.344	14.54
319.477	2.54
319.609	8.54
319.741	14.54
319.873	15.54
320.005	-4.46
320.137	19.54
320.269	16.54
320.401	22.54
320.534	1.54
320.666	6.54
320.798	5.54
320.93	-4.46
321.062	2.54
321.194	9.54
321.326	9.54
321.458	25.54
321.59	22.54
321.722	9.54
321.854	11.54
321.986	6.54
322.118	9.54
322.25	19.54
322.382	14.54
322.514	10.54
322.646	-0.46
322.778	20.54
322.91	3.54
323.042	5.54
323.174	-1.46
323.306	3.54
323.438	-12.46
323.57	1.54
323.702	11.54
323.834	4.54
323.966	-24.46
324.097	-13.46
324.229	1.54
324.361	7.54
324.493	6.54
324.625	-12.46
324.757	-0.46
324.889	13.54
325.021	16.54
325.152	12.54
325.284	26.54
325.416	-19.46
325.548	29.54
325.68	3.54
325.811	28.54
325.943	9.54
326.075	17.54
326.207	13.54
326.339	17.54
326.47	3.54
326.602	12.54
326.734	12.54
326.866	10.54
326.997	-11.46
327.129	22.54
327.261	-11.46
327.392	-1.46
327.524	9.54
327.656	18.54
327.787	3.54
327.919	1.54
328.051	6.54
328.182	14.54
328.314	35.54
328.446	17.54
328.577	10.54
328.709	14.54
328.841	-11.46
328.972	-14.46
329.104	-4.46
329.235	10.54
329.367	13.54
329.499	19.54
329.63	8.54
329.762	10.54
329.893	29.54
330.025	1.54
330.156	-22.46
330.288	21.54
330.419	3.54
330.551	14.54
330.683	26.54
330.814	-0.46
330.946	22.54
331.077	6.54
331.208	-6.46
331.34	5.54
331.471	-8.46
331.603	21.54
331.734	-3.46
331.866	20.54
331.997	6.54
332.129	-0.46
332.26	-0.46
332.392	31.54
332.523	28.54
332.654	19.54
332.786	24.54
332.917	3.54
333.048	12.54
333.18	26.54
333.311	-12.46
333.443	6.54
333.574	5.54
333.705	27.54
333.837	50.54
333.968	132.54
334.099	233.54
334.231	196.54
334.362	56.54
334.493	41.54
334.624	12.54
334.756	17.54
334.887	11.54
335.018	28.54
335.15	7.54
335.281	3.54
335.412	24.54
335.543	21.54
335.675	22.54
335.806	26.54
335.937	2.54
336.068	18.54
336.199	47.54
336.331	8.54
336.462	24.54
336.593	32.54
336.724	8.54
336.855	13.54
336.986	14.54
337.118	26.54
337.249	28.54
337.38	17.54
337.511	16.54
337.642	28.54
337.773	33.54
337.904	9.54
338.035	9.54
338.166	13.54
338.298	19.54
338.429	19.54
338.56	23.54
338.691	34.54
338.822	30.54
338.953	34.54
339.084	18.54
339.215	14.54
339.346	-6.46
339.477	6.54
339.608	12.54
339.739	1.54
339.87	14.54
340.001	24.54
340.132	31.54
340.263	5.54
340.394	23.54
340.525	33.54
340.656	16.54
340.787	4.54
340.918	40.54
341.049	18.54
341.179	8.54
341.31	19.54
341.441	21.54
341.572	31.54
341.703	22.54
341.834	-3.46
341.965	27.54
342.096	22.54
342.227	9.54
342.357	19.54
342.488	33.54
342.619	25.54
342.75	9.54
342.881	-1.46
343.012	45.54
343.142	40.54
343.273	11.54
343.404	43.54
343.535	50.54
343.666	27.54
343.796	38.54
343.927	29.54
344.058	45.54
344.189	35.54
344.319	31.54
344.45	31.54
344.581	24.54
344.712	11.54
344.842	27.54
344.973	22.54
345.104	25.54
345.234	19.54
345.365	-7.46
345.496	32.54
345.626	21.54
345.757	23.54
345.888	19.54
346.018	32.54
346.149	36.54
346.28	55.54
346.41	21.54
346.541	34.54
346.672	15.54
346.802	25.54
346.933	27.54
347.063	28.54
347.194	37.54
347.325	44.54
347.455	56.54
347.586	46.54
347.716	34.54
347.847	32.54
347.977	47.54
348.108	49.54
348.238	24.54
348.369	33.54
348.499	48.54
348.63	61.54
348.76	39.54
348.891	67.54
349.021	51.54
349.152	68.54
349.282	49.54
349.413	69.54
349.543	62.54
349.674	43.54
349.804	54.54
349.935	32.54
350.065	38.54
350.196	30.54
350.326	30.54
350.456	23.54
350.587	39.54
350.717	19.54
350.848	22.54
350.978	33.54
351.108	19.54
351.239	31.54
351.369	16.54
351.499	21.54
351.63	15.54
351.76	33.54
351.89	25.54
352.021	19.54
352.151	14.54
352.281	22.54
352.412	30.54
352.542	10.54
352.672	14.54
352.803	31.54
352.933	35.54
353.063	18.54
353.193	22.54
353.324	19.54
353.454	34.54
353.584	37.54
353.714	13.54
353.845	18.54
353.975	21.54
354.105	23.54
354.235	27.54
354.365	33.54
354.496	15.54
354.626	31.54
354.756	29.54
354.886	18.54
355.016	14.54
355.146	26.54
355.277	10.54
355.407	15.54
355.537	26.54
355.667	28.54
355.797	25.54
355.927	10.54
356.057	17.54
356.187	10.54
356.318	20.54
356.448	28.54
356.578	44.54
356.708	39.54
356.838	44.54
356.968	28.54
357.098	15.54
357.228	36.54
357.358	22.54
357.488	25.54
357.618	42.54
357.748	43.54
357.878	29.54
358.008	27.54
358.138	19.54
358.268	27.54
358.398	52.54
358.528	5.54
358.658	23.54
358.788	41.54
358.918	27.54
359.048	38.54
359.178	23.54
359.308	35.54
359.438	35.54
359.568	36.54
359.698	33.54
359.827	22.54
359.957	40.54
360.087	22.54
360.217	25.54
360.347	38.54
360.477	49.54
360.607	11.54
360.737	54.54
360.866	30.54
360.996	17.54
361.126	21.54
361.256	44.54
361.386	59.54
361.516	45.54
361.645	9.54
361.775	33.54
361.905	24.54
362.035	49.54
362.165	48.54
362.294	62.54
362.424	58.54
362.554	59.54
362.684	48.54
362.813	47.54
362.943	51.54
363.073	53.54
363.203	77.54
363.332	72.54
363.462	76.54
363.592	108.54
363.721	125.54
363.851	178.54
363.981	206.54
364.111	253.54
364.24	350.54
364.37	516.54
364.5	891.54
364.629	1881.54
364.759	3922.54
364.888	6465.54
365.018	9526.54
365.148	14886.54
365.277	13173.54
365.407	4881.54
365.537	3185.54
365.666	4088.54
365.796	1843.54
365.925	830.54
366.055	782.54
366.184	1063.54
366.314	1395.54
366.444	2523.54
366.573	2176.54
366.703	679.54
366.832	233.54
366.962	120.54
367.091	99.54
367.221	94.54
367.35	78.54
367.48	99.54
367.609	70.54
367.739	69.54
367.868	24.54
367.998	60.54
368.127	43.54
368.257	64.54
368.386	57.54
368.516	57.54
368.645	48.54
368.775	64.54
368.904	42.54
369.033	46.54
369.163	53.54
369.292	48.54
369.422	34.54
369.551	57.54
369.68	37.54
369.81	45.54
369.939	31.54
370.069	51.54
370.198	44.54
370.327	17.54
370.457	52.54
370.586	57.54
370.715	49.54
370.845	29.54
370.974	35.54
371.103	48.54
371.233	42.54
371.362	45.54
371.491	26.54
371.621	37.54
371.75	58.54
371.879	31.54
372.008	54.54
372.138	63.54
372.267	74.54
372.396	65.54
372.525	37.54
372.655	36.54
372.784	26.54
372.913	47.54
373.042	25.54
373.172	44.54
373.301	20.54
373.43	23.54
373.559	18.54
373.688	10.54
373.818	40.54
373.947	36.54
374.076	33.54
374.205	33.54
374.334	19.54
374.463	24.54
374.593	28.54
374.722	24.54
374.851	32.54
374.98	13.54
375.109	23.54
375.238	22.54
375.367	48.54
375.496	10.54
375.625	7.54
375.755	39.54
375.884	48.54
376.013	34.54
376.142	14.54
376.271	23.54
376.4	24.54
376.529	34.54
376.658	22.54
376.787	17.54
376.916	26.54
377.045	20.54
377.174	17.54
377.303	33.54
377.432	42.54
377.561	34.54
377.69	33.54
377.819	35.54
377.948	23.54
378.077	8.54
378.206	17.54
378.335	15.54
378.464	15.54
378.593	30.54
378.722	4.54
378.851	6.54
378.98	21.54
379.108	0.54
379.237	-5.46
379.366	42.54
379.495	29.54
379.624	20.54
379.753	31.54
379.882	21.54
380.011	3.54
380.14	26.54
380.268	17.54
380.397	13.54
380.526	39.54
380.655	6.54
380.784	5.54
380.913	23.54
381.041	13.54
381.17	-10.46
381.299	13.54
381.428	22.54
381.557	27.54
381.685	13.54
381.814	17.54
381.943	22.54
382.072	11.54
382.2	2.54
382.329	29.54
382.458	20.54
382.587	37.54
382.715	24.54
382.844	5.54
382.973	11.54
383.102	23.54
383.23	18.54
383.359	4.54
383.488	19.54
383.616	8.54
383.745	3.54
383.874	24.54
384.003	3.54
384.131	2.54
384.26	13.54
384.389	13.54
384.517	6.54
384.646	-0.46
384.774	27.54
384.903	28.54
385.032	43.54
385.16	26.54
385.289	24.54
385.418	33.54
385.546	33.54
385.675	26.54
385.803	27.54
385.932	35.54
386.06	12.54
386.189	25.54
386.318	30.54
386.446	13.54
386.575	17.54
386.703	48.54
386.832	13.54
386.96	-6.46
387.089	41.54
387.217	18.54
387.346	6.54
387.474	20.54
387.603	48.54
387.731	41.54
387.86	27.54
387.988	28.54
388.117	40.54
388.245	14.54
388.374	36.54
388.502	32.54
388.631	13.54
388.759	23.54
388.888	24.54
389.016	24.54
389.144	27.54
389.273	28.54
389.401	30.54
389.53	10.54
389.658	54.54
389.786	12.54
389.915	17.54
390.043	10.54
390.172	29.54
390.3	35.54
390.428	41.54
390.557	11.54
390.685	57.54
390.813	48.54
390.942	24.54
391.07	23.54
391.198	21.54
391.327	29.54
391.455	35.54
391.583	52.54
391.712	50.54
391.84	36.54
391.968	33.54
392.096	19.54
392.225	17.54
392.353	17.54
392.481	18.54
392.609	21.54
392.738	34.54
392.866	37.54
392.994	13.54
393.122	45.54
393.251	35.54
393.379	29.54
393.507	1.54
393.635	8.54
393.764	40.54
393.892	45.54
394.02	18.54
394.148	28.54
394.276	40.54
394.404	33.54
394.533	15.54
394.661	23.54
394.789	48.54
394.917	39.54
395.045	12.54
395.173	25.54
395.302	11.54
395.43	25.54
395.558	52.54
395.686	35.54
395.814	65.54
395.942	26.54
396.07	34.54
396.198	32.54
396.326	31.54
396.454	53.54
396.582	55.54
396.711	44.54
396.839	36.54
396.967	20.54
397.095	25.54
397.223	38.54
397.351	69.54
397.479	42.54
397.607	32.54
397.735	56.54
397.863	48.54
397.991	44.54
398.119	38.54
398.247	37.54
398.375	52.54
398.503	38.54
398.631	47.54
398.759	67.54
398.887	52.54
399.015	39.54
399.143	53.54
399.271	62.54
399.399	57.54
399.526	75.54
399.654	90.54
399.782	79.54
399.91	98.54
400.038	95.54
400.166	85.54
400.294	98.54
400.422	62.54
400.55	100.54
400.678	104.54
400.805	127.54
400.933	114.54
401.061	138.54
401.189	138.54
401.317	163.54
401.445	127.54
401.573	82.54
401.7	45.54
401.828	66.54
401.956	72.54
402.084	63.54
402.212	63.54
402.34	29.54
402.467	38.54
402.595	22.54
402.723	47.54
402.851	76.54
402.978	59.54
403.106	75.54
403.234	98.54
403.362	128.54
403.489	144.54
403.617	149.54
403.745	201.54
403.873	291.54
404	569.54
404.128	1518.54
404.256	4048.54
404.384	5209.54
404.511	5567.54
404.639	7371.54
404.767	11625.54
404.894	14764.54
405.022	4976.54
405.15	1340.54
405.277	447.54
405.405	241.54
405.533	125.54
405.66	127.54
405.788	70.54
405.916	65.54
406.043	64.54
406.171	81.54
406.299	54.54
406.426	74.54
406.554	53.54
406.681	76.54
406.809	46.54
406.937	69.54
407.064	62.54
407.192	130.54
407.319	323.54
407.447	551.54
407.574	542.54
407.702	635.54
407.83	843.54
407.957	1647.54
408.085	978.54
408.212	286.54
408.34	110.54
408.467	60.54
408.595	48.54
408.722	76.54
408.85	52.54
408.977	49.54
409.105	34.54
409.232	39.54
409.36	41.54
409.487	14.54
409.615	14.54
409.742	31.54
409.87	24.54
409.997	32.54
410.125	35.54
410.252	50.54
410.379	30.54
410.507	45.54
410.634	29.54
410.762	36.54
410.889	45.54
411.017	33.54
411.144	22.54
411.271	31.54
411.399	32.54
411.526	19.54
411.653	22.54
411.781	44.54
411.908	34.54
412.036	30.54
412.163	41.54
412.29	51.54
412.418	41.54
412.545	52.54
412.672	22.54
412.8	58.54
412.927	44.54
413.054	43.54
413.182	37.54
413.309	31.54
413.436	28.54
413.564	34.54
413.691	39.54
413.818	36.54
413.945	27.54
414.073	39.54
414.2	32.54
414.327	31.54
414.454	29.54
414.582	31.54
414.709	-4.46
414.836	18.54
414.963	28.54
415.091	34.54
415.218	13.54
415.345	30.54
415.472	35.54
415.6	22.54
415.727	27.54
415.854	34.54
415.981	39.54
416.108	27.54
416.236	47.54
416.363	32.54
416.49	38.54
416.617	63.54
416.744	39.54
416.871	32.54
416.998	36.54
417.126	30.54
417.253	22.54
417.38	42.54
417.507	25.54
417.634	40.54
417.761	56.54
417.888	43.54
418.015	34.54
418.143	38.54
418.27	42.54
418.397	32.54
418.524	29.54
418.651	27.54
418.778	39.54
418.905	67.54
419.032	43.54
419.159	42.54
419.286	86.54
419.413	71.54
419.54	44.54
419.667	33.54
419.794	32.54
419.921	45.54
420.048	68.54
420.175	63.54
420.302	33.54
420.429	66.54
420.556	59.54
420.683	69.54
420.81	60.54
420.937	83.54
421.064	74.54
421.191	51.54
421.318	65.54
421.445	88.54
421.572	57.54
421.699	37.54
421.826	51.54
421.953	26.54
422.08	33.54
422.207	20.54
422.334	9.54
422.461	35.54
422.588	21.54
422.714	24.54
422.841	32.54
422.968	40.54
423.095	46.54
423.222	-7.46
423.349	31.54
423.476	32.54
423.603	24.54
423.729	-2.46
423.856	8.54
423.983	18.54
424.11	15.54
424.237	28.54
424.364	21.54
424.491	40.54
424.617	-7.46
424.744	7.54
424.871	25.54
424.998	24.54
425.125	25.54
425.251	30.54
425.378	33.54
425.505	10.54
425.632	21.54
425.758	9.54
425.885	32.54
426.012	25.54
426.139	43.54
426.266	20.54
426.392	18.54
426.519	20.54
426.646	20.54
426.772	39.54
426.899	30.54
427.026	39.54
427.153	43.54
427.279	37.54
427.406	29.54
427.533	3.54
427.659	9.54
427.786	5.54
427.913	26.54
428.039	20.54
428.166	24.54
428.293	24.54
428.419	42.54
428.546	41.54
428.673	7.54
428.799	21.54
428.926	18.54
429.053	42.54
429.179	26.54
429.306	35.54
429.433	35.54
429.559	46.54
429.686	26.54
429.812	31.54
429.939	24.54
430.066	28.54
430.192	27.54
430.319	22.54
430.445	37.54
430.572	33.54
430.699	24.54
430.825	21.54
430.952	27.54
431.078	38.54
431.205	54.54
431.331	25.54
431.458	47.54
431.584	47.54
431.711	17.54
431.837	41.54
431.964	20.54
432.09	35.54
432.217	13.54
432.343	11.54
432.47	32.54
432.596	16.54
432.723	25.54
432.849	21.54
432.976	45.54
433.102	51.54
433.229	36.54
433.355	59.54
433.482	85.54
433.608	122.54
433.735	117.54
433.861	130.54
433.987	162.54
434.114	194.54
434.24	179.54
434.367	200.54
434.493	213.54
434.62	292.54
434.746	398.54
434.872	630.54
434.999	840.54
435.125	1782.54
435.252	5678.54
435.378	13508.54
435.504	15266.54
435.631	15499.54
435.757	15687.54
435.883	15687.54
436.01	15687.54
436.136	15687.54
436.262	15687.54
436.389	3559.54
436.515	2740.54
436.641	932.54
436.768	669.54
436.894	427.54
437.02	424.54
437.147	315.54
437.273	292.54
437.399	223.54
437.526	245.54
437.652	168.54
437.778	225.54
437.904	155.54
438.031	161.54
438.157	133.54
438.283	163.54
438.409	114.54
438.536	121.54
438.662	132.54
438.788	140.54
438.914	111.54
439.041	126.54
439.167	113.54
439.293	95.54
439.419	97.54
439.546	108.54
439.672	77.54
439.798	88.54
439.924	79.54
440.05	88.54
440.177	76.54
440.303	88.54
440.429	67.54
440.555	65.54
440.681	50.54
440.807	93.54
440.934	63.54
441.06	82.54
441.186	60.54
441.312	59.54
441.438	74.54
441.564	68.54
441.69	68.54
441.816	62.54
441.943	47.54
442.069	57.54
442.195	62.54
442.321	83.54
442.447	47.54
442.573	44.54
442.699	45.54
442.825	44.54
442.951	44.54
443.077	54.54
443.203	67.54
443.33	44.54
443.456	31.54
443.582	54.54
443.708	38.54
443.834	52.54
443.96	43.54
444.086	42.54
444.212	44.54
444.338	53.54
444.464	69.54
444.59	47.54
444.716	62.54
444.842	42.54
444.968	35.54
445.094	59.54
445.22	30.54
445.346	30.54
445.472	51.54
445.598	55.54
445.724	43.54
445.85	56.54
445.976	48.54
446.102	43.54
446.228	58.54
446.354	49.54
446.48	31.54
446.605	35.54
446.731	41.54
446.857	50.54
446.983	27.54
447.109	30.54
447.235	25.54
447.361	39.54
447.487	54.54
447.613	53.54
447.739	22.54
447.865	15.54
447.99	43.54
448.116	50.54
448.242	48.54
448.368	30.54
448.494	23.54
448.62	51.54
448.746	40.54
448.872	34.54
448.997	19.54
449.123	31.54
449.249	45.54
449.375	60.54
449.501	11.54
449.627	19.54
449.752	43.54
449.878	31.54
450.004	25.54
450.13	24.54
450.256	20.54
450.381	31.54
450.507	20.54
450.633	38.54
450.759	48.54
450.884	14.54
451.01	44.54
451.136	22.54
451.262	34.54
451.388	36.54
451.513	12.54
451.639	30.54
451.765	25.54
451.89	44.54
452.016	34.54
452.142	38.54
452.268	32.54
452.393	29.54
452.519	20.54
452.645	32.54
452.771	10.54
452.896	28.54
453.022	12.54
453.148	33.54
453.273	29.54
453.399	18.54
453.525	5.54
453.65	21.54
453.776	36.54
453.902	44.54
454.027	36.54
454.153	45.54
454.279	29.54
454.404	24.54
454.53	46.54
454.656	60.54
454.781	22.54
454.907	28.54
455.032	21.54
455.158	45.54
455.284	44.54
455.409	23.54
455.535	21.54
455.66	41.54
455.786	48.54
455.912	39.54
456.037	8.54
456.163	21.54
456.288	27.54
456.414	8.54
456.539	15.54
456.665	39.54
456.791	18.54
456.916	25.54
457.042	26.54
457.167	32.54
457.293	33.54
457.418	38.54
457.544	25.54
457.669	9.54
457.795	24.54
457.92	28.54
458.046	25.54
458.171	29.54
458.297	24.54
458.422	21.54
458.548	5.54
458.673	26.54
458.799	39.54
458.924	2.54
459.05	20.54
459.175	33.54
459.301	24.54
459.426	42.54
459.552	26.54
459.677	20.54
459.803	40.54
459.928	26.54
460.053	22.54
460.179	34.54
460.304	37.54
460.43	21.54
460.555	26.54
460.681	17.54
460.806	33.54
460.931	28.54
461.057	41.54
461.182	30.54
461.308	38.54
461.433	30.54
461.558	15.54
461.684	62.54
461.809	37.54
461.934	16.54
462.06	39.54
462.185	-1.46
462.311	8.54
462.436	29.54
462.561	30.54
462.687	7.54
462.812	38.54
462.937	26.54
463.063	29.54
463.188	35.54
463.313	47.54
463.439	33.54
463.564	27.54
463.689	30.54
463.814	18.54
463.94	25.54
464.065	35.54
464.19	43.54
464.316	24.54
464.441	15.54
464.566	10.54
464.692	29.54
464.817	34.54
464.942	22.54
465.067	17.54
465.193	12.54
465.318	27.54
465.443	18.54
465.568	33.54
465.694	35.54
465.819	51.54
465.944	36.54
466.069	21.54
466.194	40.54
466.32	30.54
466.445	24.54
466.57	25.54
466.695	24.54
466.82	34.54
466.946	50.54
467.071	46.54
467.196	29.54
467.321	37.54
467.446	30.54
467.572	36.54
467.697	24.54
467.822	51.54
467.947	52.54
468.072	14.54
468.197	16.54
468.323	28.54
468.448	21.54
468.573	35.54
468.698	48.54
468.823	41.54
468.948	30.54
469.073	25.54
469.198	36.54
469.324	47.54
469.449	55.54
469.574	54.54
469.699	48.54
469.824	51.54
469.949	31.54
470.074	38.54
470.199	74.54
470.324	32.54
470.449	46.54
470.574	29.54
470.7	27.54
470.825	38.54
470.95	65.54
471.075	30.54
471.2	50.54
471.325	58.54
471.45	38.54
471.575	21.54
471.7	41.54
471.825	24.54
471.95	19.54
472.075	33.54
472.2	22.54
472.325	21.54
472.45	26.54
472.575	37.54
472.7	36.54
472.825	38.54
472.95	42.54
473.075	30.54
473.2	36.54
473.325	17.54
473.45	32.54
473.575	23.54
473.7	38.54
473.825	22.54
473.95	24.54
474.075	33.54
474.2	12.54
474.325	18.54
474.45	34.54
474.574	42.54
474.699	24.54
474.824	20.54
474.949	12.54
475.074	30.54
475.199	31.54
475.324	36.54
475.449	17.54
475.574	26.54
475.699	33.54
475.824	8.54
475.949	17.54
476.073	17.54
476.198	27.54
476.323	18.54
476.448	22.54
476.573	16.54
476.698	41.54
476.823	31.54
476.947	33.54
477.072	17.54
477.197	15.54
477.322	7.54
477.447	29.54
477.572	48.54
477.697	16.54
477.821	13.54
477.946	37.54
478.071	34.54
478.196	39.54
478.321	31.54
478.445	29.54
478.57	21.54
478.695	2.54
478.82	17.54
478.945	17.54
479.069	19.54
479.194	12.54
479.319	27.54
479.444	34.54
479.569	22.54
479.693	23.54
479.818	29.54
479.943	34.54
480.068	24.54
480.192	20.54
480.317	42.54
480.442	16.54
480.567	12.54
480.691	14.54
480.816	14.54
480.941	15.54
481.066	41.54
481.19	36.54
481.315	32.54
481.44	0.54
481.564	-9.46
481.689	17.54
481.814	28.54
481.938	24.54
482.063	10.54
482.188	22.54
482.313	38.54
482.437	22.54
482.562	21.54
482.687	27.54
482.811	28.54
482.936	24.54
483.061	21.54
483.185	21.54
483.31	29.54
483.435	20.54
483.559	28.54
483.684	29.54
483.808	46.54
483.933	25.54
484.058	9.54
484.182	30.54
484.307	18.54
484.432	27.54
484.556	15.54
484.681	18.54
484.805	32.54
484.93	41.54
485.055	45.54
485.179	54.54
485.304	27.54
485.428	29.54
485.553	20.54
485.678	31.54
485.802	29.54
485.927	39.54
486.051	39.54
486.176	35.54
486.3	24.54
486.425	28.54
486.549	31.54
486.674	42.54
486.799	17.54
486.923	19.54
487.048	0.54
487.172	20.54
487.297	25.54
487.421	24.54
487.546	5.54
487.67	42.54
487.795	2.54
487.919	17.54
488.044	37.54
488.168	45.54
488.293	25.54
488.417	10.54
488.542	35.54
488.666	37.54
488.791	33.54
488.915	13.54
489.04	23.54
489.164	25.54
489.289	24.54
489.413	19.54
489.538	38.54
489.662	26.54
489.786	17.54
489.911	24.54
490.035	31.54
490.16	26.54
490.284	27.54
490.409	4.54
490.533	45.54
490.658	57.54
490.782	20.54
490.906	37.54
491.031	126.54
491.155	148.54
491.28	161.54
491.404	172.54
491.528	243.54
491.653	169.54
491.777	81.54
491.902	11.54
492.026	23.54
492.15	25.54
492.275	31.54
492.399	23.54
492.524	8.54
492.648	23.54
492.772	35.54
492.897	47.54
493.021	19.54
493.145	28.54
493.27	51.54
493.394	37.54
493.518	32.54
493.643	12.54
493.767	40.54
493.891	29.54
494.016	33.54
494.14	26.54
494.264	39.54
494.389	40.54
494.513	20.54
494.637	12.54
494.762	37.54
494.886	46.54
495.01	6.54
495.134	34.54
495.259	24.54
495.383	25.54
495.507	31.54
495.632	31.54
495.756	47.54
495.88	30.54
496.004	16.54
496.129	15.54
496.253	29.54
496.377	28.54
496.501	36.54
496.626	16.54
496.75	37.54
496.874	37.54
496.998	18.54
497.123	41.54
497.247	20.54
497.371	12.54
497.495	22.54
497.62	12.54
497.744	7.54
497.868	29.54
497.992	32.54
498.116	20.54
498.241	27.54
498.365	14.54
498.489	23.54
498.613	35.54
498.737	21.54
498.862	10.54
498.986	2.54
499.11	12.54
499.234	15.54
499.358	13.54
499.482	8.54
499.607	21.54
499.731	27.54
499.855	34.54
499.979	29.54
500.103	21.54
500.227	29.54
500.351	32.54
500.476	24.54
500.6	25.54
500.724	28.54
500.848	21.54
500.972	27.54
501.096	9.54
501.22	26.54
501.344	10.54
501.469	20.54
501.593	27.54
501.717	27.54
501.841	32.54
501.965	39.54
502.089	33.54
502.213	20.54
502.337	27.54
502.461	36.54
502.585	37.54
502.709	29.54
502.834	15.54
502.958	42.54
503.082	28.54
503.206	29.54
503.33	45.54
503.454	19.54
503.578	44.54
503.702	36.54
503.826	35.54
503.95	33.54
504.074	16.54
504.198	28.54
504.322	19.54
504.446	18.54
504.57	35.54
504.694	20.54
504.818	21.54
504.942	33.54
505.066	14.54
505.19	24.54
505.314	29.54
505.438	18.54
505.562	22.54
505.686	26.54
505.81	22.54
505.934	38.54
506.058	20.54
506.182	29.54
506.306	32.54
506.43	13.54
506.554	21.54
506.678	0.54
506.802	13.54
506.926	25.54
507.05	36.54
507.174	43.54
507.298	28.54
507.422	21.54
507.546	41.54
507.67	32.54
507.794	9.54
507.918	21.54
508.042	17.54
508.165	26.54
508.289	16.54
508.413	22.54
508.537	15.54
508.661	34.54
508.785	34.54
508.909	43.54
509.033	41.54
509.157	37.54
509.281	20.54
509.405	36.54
509.528	43.54
509.652	31.54
509.776	16.54
509.9	39.54
510.024	36.54
510.148	41.54
510.272	38.54
510.396	34.54
510.519	20.54
510.643	44.54
510.767	26.54
510.891	44.54
511.015	26.54
511.139	27.54
511.263	45.54
511.386	50.54
511.51	36.54
511.634	28.54
511.758	38.54
511.882	27.54
512.006	46.54
512.129	43.54
512.253	74.54
512.377	86.54
512.501	91.54
512.625	94.54
512.748	89.54
512.872	72.54
512.996	54.54
513.12	55.54
513.244	41.54
513.367	66.54
513.491	86.54
513.615	63.54
513.739	78.54
513.862	64.54
513.986	92.54
514.11	110.54
514.234	91.54
514.358	118.54
514.481	140.54
514.605	106.54
514.729	116.54
514.853	122.54
514.976	103.54
515.1	105.54
515.224	104.54
515.348	87.54
515.471	77.54
515.595	96.54
515.719	123.54
515.842	207.54
515.966	270.54
516.09	290.54
516.214	277.54
516.337	320.54
516.461	214.54
516.585	82.54
516.708	39.54
516.832	35.54
516.956	30.54
517.08	34.54
517.203	21.54
517.327	21.54
517.451	31.54
517.574	35.54
517.698	17.54
517.822	17.54
517.945	30.54
518.069	25.54
518.193	52.54
518.316	21.54
518.44	27.54
518.564	26.54
518.687	8.54
518.811	17.54
518.935	44.54
519.058	-4.46
519.182	39.54
519.306	34.54
519.429	26.54
519.553	37.54
519.676	21.54
519.8	19.54
519.924	7.54
520.047	19.54
520.171	5.54
520.294	8.54
520.418	34.54
520.542	33.54
520.665	45.54
520.789	24.54
520.913	13.54
521.036	7.54
521.16	9.54
521.283	0.54
521.407	8.54
521.53	1.54
521.654	-5.46
521.778	15.54
521.901	37.54
522.025	25.54
522.148	21.54
522.272	21.54
522.395	16.54
522.519	26.54
522.643	17.54
522.766	16.54
522.89	11.54
523.013	10.54
523.137	1.54
523.26	14.54
523.384	25.54
523.507	33.54
523.631	14.54
523.754	18.54
523.878	25.54
524.002	21.54
524.125	17.54
524.249	14.54
524.372	24.54
524.496	2.54
524.619	27.54
524.743	23.54
524.866	0.54
524.99	30.54
525.113	16.54
525.237	16.54
525.36	12.54
525.484	23.54
525.607	24.54
525.731	2.54
525.854	16.54
525.978	22.54
526.101	2.54
526.224	12.54
526.348	16.54
526.471	13.54
526.595	25.54
526.718	18.54
526.842	18.54
526.965	25.54
527.089	7.54
527.212	13.54
527.336	3.54
527.459	22.54
527.582	17.54
527.706	22.54
527.829	15.54
527.953	26.54
528.076	-1.46
528.2	17.54
528.323	48.54
528.446	45.54
528.57	16.54
528.693	26.54
528.817	10.54
528.94	18.54
529.064	36.54
529.187	14.54
529.31	2.54
529.434	32.54
529.557	18.54
529.68	16.54
529.804	14.54
529.927	15.54
530.051	24.54
530.174	22.54
530.297	14.54
530.421	30.54
530.544	17.54
530.668	25.54
530.791	-9.46
530.914	28.54
531.038	18.54
531.161	3.54
531.284	29.54
531.408	31.54
531.531	27.54
531.654	14.54
531.778	15.54
531.901	9.54
532.024	16.54
532.148	17.54
532.271	11.54
532.394	13.54
532.518	35.54
532.641	27.54
532.764	26.54
532.888	26.54
533.011	15.54
533.134	18.54
533.258	20.54
533.381	20.54
533.504	12.54
533.628	11.54
533.751	23.54
533.874	16.54
533.997	33.54
534.121	21.54
534.244	22.54
534.367	14.54
534.491	17.54
534.614	11.54
534.737	12.54
534.86	19.54
534.984	22.54
535.107	19.54
535.23	27.54
535.354	13.54
535.477	-6.46
535.6	17.54
535.723	6.54
535.847	24.54
535.97	6.54
536.093	22.54
536.216	5.54
536.34	31.54
536.463	12.54
536.586	28.54
536.709	43.54
536.833	25.54
536.956	9.54
537.079	4.54
537.202	18.54
537.325	15.54
537.449	18.54
537.572	19.54
537.695	18.54
537.818	12.54
537.941	6.54
538.065	26.54
538.188	13.54
538.311	38.54
538.434	34.54
538.558	21.54
538.681	50.54
538.804	32.54
538.927	21.54
539.05	39.54
539.173	20.54
539.297	22.54
539.42	22.54
539.543	27.54
539.666	24.54
539.789	35.54
539.913	37.54
540.036	38.54
540.159	33.54
540.282	0.54
540.405	17.54
540.528	34.54
540.651	35.54
540.775	13.54
540.898	29.54
541.021	12.54
541.144	38.54
541.267	15.54
541.39	21.54
541.513	53.54
541.637	39.54
541.76	34.54
541.883	29.54
542.006	51.54
542.129	72.54
542.252	49.54
542.375	38.54
542.498	33.54
542.622	54.54
542.745	46.54
542.868	55.54
542.991	66.54
543.114	53.54
543.237	64.54
543.36	70.54
543.483	74.54
543.606	68.54
543.73	87.54
543.853	73.54
543.976	78.54
544.099	102.54
544.222	107.54
544.345	133.54
544.468	182.54
544.591	227.54
544.714	269.54
544.837	383.54
544.96	440.54
545.083	664.54
545.206	1081.54
545.329	2486.54
545.453	11173.54
545.576	15294.54
545.699	15687.54
545.822	15687.54
545.945	15687.54
546.068	15687.54
546.191	15687.54
546.314	15687.54
546.437	15687.54
546.56	15687.54
546.683	15687.54
546.806	15687.54
546.929	15687.54
547.052	15687.54
547.175	15687.54
547.298	15687.54
547.421	15687.54
547.544	15687.54
547.667	4174.54
547.79	5032.54
547.913	1459.54
548.036	1012.54
548.159	685.54
548.282	686.54
548.405	501.54
548.528	498.54
548.651	403.54
548.774	419.54
548.897	358.54
549.02	357.54
549.143	340.54
549.266	328.54
549.389	299.54
549.512	251.54
549.635	242.54
549.758	252.54
549.881	210.54
550.004	212.54
550.127	188.54
550.25	206.54
550.373	183.54
550.496	186.54
550.619	162.54
550.742	164.54
550.865	131.54
550.988	163.54
551.111	157.54
551.234	166.54
551.356	133.54
551.479	122.54
551.602	125.54
551.725	138.54
551.848	130.54
551.971	153.54
552.094	128.54
552.217	121.54
552.34	106.54
552.463	116.54
552.586	125.54
552.709	97.54
552.832	113.54
552.955	124.54
553.077	126.54
553.2	108.54
553.323	75.54
553.446	104.54
553.569	97.54
553.692	104.54
553.815	98.54
553.938	116.54
554.061	95.54
554.184	81.54
554.306	94.54
554.429	78.54
554.552	69.54
554.675	66.54
554.798	96.54
554.921	93.54
555.044	74.54
555.167	84.54
555.29	72.54
555.412	90.54
555.535	100.54
555.658	80.54
555.781	95.54
555.904	71.54
556.027	89.54
556.15	88.54
556.272	71.54
556.395	79.54
556.518	71.54
556.641	73.54
556.764	73.54
556.887	82.54
557.01	51.54
557.132	66.54
557.255	75.54
557.378	82.54
557.501	58.54
557.624	74.54
557.747	70.54
557.869	72.54
557.992	75.54
558.115	111.54
558.238	77.54
558.361	85.54
558.483	109.54
558.606	80.54
558.729	52.54
558.852	96.54
558.975	55.54
559.098	56.54
559.22	34.54
559.343	52.54
559.466	51.54
559.589	51.54
559.712	40.54
559.834	58.54
559.957	52.54
560.08	47.54
560.203	42.54
560.325	67.54
560.448	71.54
560.571	68.54
560.694	39.54
560.817	66.54
560.939	61.54
561.062	63.54
561.185	62.54
561.308	89.54
561.43	52.54
561.553	66.54
561.676	52.54
561.799	81.54
561.921	48.54
562.044	67.54
562.167	55.54
562.29	78.54
562.413	54.54
562.535	63.54
562.658	52.54
562.781	62.54
562.903	53.54
563.026	86.54
563.149	133.54
563.272	115.54
563.394	120.54
563.517	101.54
563.64	70.54
563.763	60.54
563.885	46.54
564.008	61.54
564.131	48.54
564.254	32.54
564.376	61.54
564.499	32.54
564.622	37.54
564.744	46.54
564.867	44.54
564.99	25.54
565.113	34.54
565.235	45.54
565.358	42.54
565.481	26.54
565.603	30.54
565.726	27.54
565.849	58.54
565.971	44.54
566.094	47.54
566.217	46.54
566.34	46.54
566.462	36.54
566.585	46.54
566.708	66.54
566.83	39.54
566.953	65.54
567.076	21.54
567.198	24.54
567.321	26.54
567.444	46.54
567.566	20.54
567.689	20.54
567.812	37.54
567.934	39.54
568.057	31.54
568.18	21.54
568.302	34.54
568.425	22.54
568.548	27.54
568.67	45.54
568.793	38.54
568.916	39.54
569.038	34.54
569.161	46.54
569.283	32.54
569.406	30.54
569.529	22.54
569.651	33.54
569.774	41.54
569.897	30.54
570.019	54.54
570.142	50.54
570.265	41.54
570.387	31.54
570.51	20.54
570.632	59.54
570.755	30.54
570.878	30.54
571	34.54
571.123	17.54
571.246	26.54
571.368	34.54
571.491	30.54
571.613	35.54
571.736	28.54
571.859	37.54
571.981	38.54
572.104	15.54
572.226	37.54
572.349	8.54
572.472	18.54
572.594	41.54
572.717	34.54
572.839	17.54
572.962	24.54
573.085	15.54
573.207	42.54
573.33	34.54
573.452	40.54
573.575	51.54
573.697	34.54
573.82	30.54
573.943	37.54
574.065	36.54
574.188	26.54
574.31	39.54
574.433	42.54
574.555	46.54
574.678	30.54
574.801	46.54
574.923	36.54
575.046	36.54
575.168	32.54
575.291	34.54
575.413	67.54
575.536	52.54
575.659	53.54
575.781	38.54
575.904	56.54
576.026	84.54
576.149	80.54
576.271	116.54
576.394	195.54
576.516	540.54
576.639	3742.54
576.761	10334.54
576.884	8873.54
577.007	8957.54
577.129	8216.54
577.252	3762.54
577.374	1317.54
577.497	523.54
577.619	275.54
577.742	168.54
577.864	153.54
577.987	118.54
578.109	138.54
578.232	136.54
578.354	161.54
578.477	193.54
578.599	385.54
578.722	2058.54
578.844	9272.54
578.967	9975.54
579.089	8907.54
579.212	9290.54
579.334	5369.54
579.457	1948.54
579.579	768.54
579.702	361.54
579.824	212.54
579.947	144.54
580.069	114.54
580.192	76.54
580.314	94.54
580.437	79.54
580.559	100.54
580.682	59.54
580.804	64.54
580.927	54.54
581.049	55.54
581.172	43.54
581.294	46.54
581.417	54.54
581.539	45.54
581.662	36.54
581.784	32.54
581.907	50.54
582.029	58.54
582.152	31.54
582.274	59.54
582.396	31.54
582.519	42.54
582.641	25.54
582.764	41.54
582.886	44.54
583.009	43.54
583.131	41.54
583.254	33.54
583.376	51.54
583.499	43.54
583.621	40.54
583.743	42.54
583.866	36.54
583.988	46.54
584.111	57.54
584.233	46.54
584.356	36.54
584.478	34.54
584.601	5.54
584.723	33.54
584.845	55.54
584.968	21.54
585.09	13.54
585.213	47.54
585.335	34.54
585.458	31.54
585.58	22.54
585.702	53.54
585.825	55.54
585.947	34.54
586.07	13.54
586.192	10.54
586.315	30.54
586.437	27.54
586.559	25.54
586.682	26.54
586.804	43.54
586.927	47.54
587.049	41.54
587.171	37.54
587.294	41.54
587.416	44.54
587.539	20.54
587.661	54.54
587.783	24.54
587.906	23.54
588.028	31.54
588.151	25.54
588.273	28.54
588.395	17.54
588.518	30.54
588.64	30.54
588.763	37.54
588.885	32.54
589.007	46.54
589.13	24.54
589.252	9.54
589.375	34.54
589.497	35.54
589.619	37.54
589.742	33.54
589.864	38.54
589.986	40.54
590.109	19.54
590.231	40.54
590.354	30.54
590.476	18.54
590.598	13.54
590.721	33.54
590.843	41.54
590.965	28.54
591.088	24.54
591.21	31.54
591.332	33.54
591.455	16.54
591.577	18.54
591.7	33.54
591.822	24.54
591.944	24.54
592.067	27.54
592.189	42.54
592.311	30.54
592.434	20.54
592.556	41.54
592.678	20.54
592.801	24.54
592.923	21.54
593.045	22.54
593.168	18.54
593.29	36.54
593.412	20.54
593.535	27.54
593.657	25.54
593.779	20.54
593.902	38.54
594.024	30.54
594.146	34.54
594.269	29.54
594.391	17.54
594.513	31.54
594.636	16.54
594.758	24.54
594.88	37.54
595.003	34.54
595.125	21.54
595.247	14.54
595.37	24.54
595.492	13.54
595.614	36.54
595.737	13.54
595.859	23.54
595.981	28.54
596.104	39.54
596.226	32.54
596.348	34.54
596.471	14.54
596.593	28.54
596.715	13.54
596.838	17.54
596.96	18.54
597.082	26.54
597.204	21.54
597.327	24.54
597.449	4.54
597.571	27.54
597.694	27.54
597.816	37.54
597.938	24.54
598.061	24.54
598.183	18.54
598.305	29.54
598.427	30.54
598.55	24.54
598.672	28.54
598.794	17.54
598.917	18.54
599.039	19.54
599.161	47.54
599.283	26.54
599.406	25.54
599.528	32.54
599.65	49.54
599.773	25.54
599.895	45.54
600.017	57.54
600.139	26.54
600.262	9.54
600.384	20.54
600.506	3.54
600.628	47.54
600.751	38.54
600.873	22.54
600.995	12.54
601.118	42.54
601.24	30.54
601.362	31.54
601.484	28.54
601.607	35.54
601.729	26.54
601.851	17.54
601.973	18.54
602.096	25.54
602.218	32.54
602.34	25.54
602.462	42.54
602.585	38.54
602.707	15.54
602.829	16.54
602.951	20.54
603.074	2.54
603.196	15.54
603.318	27.54
603.44	24.54
603.563	38.54
603.685	8.54
603.807	26.54
603.929	24.54
604.052	37.54
604.174	29.54
604.296	30.54
604.418	23.54
604.541	32.54
604.663	10.54
604.785	26.54
604.907	13.54
605.03	12.54
605.152	58.54
605.274	19.54
605.396	23.54
605.519	21.54
605.641	21.54
605.763	24.54
605.885	20.54
606.008	36.54
606.13	19.54
606.252	12.54
606.374	10.54
606.496	20.54
606.619	28.54
606.741	20.54
606.863	50.54
606.985	35.54
607.108	36.54
607.23	20.54
607.352	28.54
607.474	25.54
607.596	22.54
607.719	15.54
607.841	40.54
607.963	28.54
608.085	11.54
608.207	33.54
608.33	25.54
608.452	19.54
608.574	13.54
608.696	39.54
608.819	28.54
608.941	16.54
609.063	9.54
609.185	30.54
609.307	30.54
609.43	30.54
609.552	26.54
609.674	20.54
609.796	28.54
609.918	33.54
610.041	11.54
610.163	24.54
610.285	14.54
610.407	9.54
610.529	18.54
610.652	26.54
610.774	30.54
610.896	26.54
611.018	15.54
611.14	25.54
611.263	25.54
611.385	28.54
611.507	43.54
611.629	21.54
611.751	36.54
611.873	50.54
611.996	21.54
612.118	25.54
612.24	29.54
612.362	34.54
612.484	46.54
612.607	43.54
612.729	58.54
612.851	36.54
612.973	27.54
613.095	24.54
613.218	16.54
613.34	40.54
613.462	27.54
613.584	25.54
613.706	6.54
613.828	28.54
613.951	35.54
614.073	33.54
614.195	16.54
614.317	36.54
614.439	39.54
614.561	32.54
614.684	32.54
614.806	33.54
614.928	43.54
615.05	28.54
615.172	25.54
615.294	36.54
615.417	25.54
615.539	40.54
615.661	34.54
615.783	41.54
615.905	31.54
616.027	34.54
616.15	24.54
616.272	26.54
616.394	16.54
616.516	8.54
616.638	28.54
616.76	33.54
616.883	29.54
617.005	24.54
617.127	24.54
617.249	15.54
617.371	14.54
617.493	24.54
617.615	36.54
617.738	22.54
617.86	16.54
617.982	3.54
618.104	12.54
618.226	9.54
618.348	18.54
618.471	20.54
618.593	32.54
618.715	8.54
618.837	13.54
618.959	30.54
619.081	36.54
619.203	10.54
619.326	25.54
619.448	27.54
619.57	44.54
619.692	22.54
619.814	24.54
619.936	19.54
620.058	29.54
620.181	20.54
620.303	14.54
620.425	20.54
620.547	28.54
620.669	20.54
620.791	18.54
620.913	13.54
621.036	8.54
621.158	22.54
621.28	43.54
621.402	12.54
621.524	3.54
621.646	19.54
621.768	3.54
621.891	-7.46
622.013	32.54
622.135	28.54
622.257	8.54
622.379	15.54
622.501	38.54
622.623	23.54
622.745	28.54
622.868	19.54
622.99	6.54
623.112	5.54
623.234	10.54
623.356	29.54
623.478	22.54
623.6	20.54
623.722	14.54
623.845	21.54
623.967	20.54
624.089	30.54
624.211	14.54
624.333	38.54
624.455	28.54
624.577	13.54
624.699	14.54
624.822	42.54
624.944	20.54
625.066	22.54
625.188	49.54
625.31	31.54
625.432	25.54
625.554	11.54
625.676	45.54
625.799	8.54
625.921	28.54
626.043	22.54
626.165	19.54
626.287	-4.46
626.409	16.54
626.531	15.54
626.653	25.54
626.775	25.54
626.898	21.54
627.02	26.54
627.142	53.54
627.264	37.54
627.386	19.54
627.508	29.54
627.63	17.54
627.752	11.54
627.874	24.54
627.997	18.54
628.119	31.54
628.241	26.54
628.363	11.54
628.485	29.54
628.607	23.54
628.729	11.54
628.851	6.54
628.973	22.54
629.096	13.54
629.218	-3.46
629.34	26.54
629.462	22.54
629.584	33.54
629.706	26.54
629.828	26.54
629.95	41.54
630.072	18.54
630.195	15.54
630.317	23.54
630.439	0.54
630.561	26.54
630.683	12.54
630.805	24.54
630.927	31.54
631.049	13.54
631.171	21.54
631.293	12.54
631.416	14.54
631.538	21.54
631.66	44.54
631.782	31.54
631.904	48.54
632.026	5.54
632.148	21.54
632.27	14.54
632.392	26.54
632.514	29.54
632.637	30.54
632.759	16.54
632.881	19.54
633.003	2.54
633.125	3.54
633.247	2.54
633.369	15.54
633.491	19.54
633.613	25.54
633.735	8.54
633.858	26.54
633.98	22.54
634.102	6.54
634.224	1.54
634.346	15.54
634.468	22.54
634.59	23.54
634.712	28.54
634.834	12.54
634.956	6.54
635.078	21.54
635.201	4.54
635.323	19.54
635.445	21.54
635.567	8.54
635.689	25.54
635.811	10.54
635.933	18.54
636.055	28.54
636.177	19.54
636.299	25.54
636.421	-0.46
636.544	-0.46
636.666	21.54
636.788	12.54
636.91	10.54
637.032	17.54
637.154	16.54
637.276	45.54
637.398	8.54
637.52	25.54
637.642	33.54
637.764	22.54
637.887	20.54
638.009	14.54
638.131	27.54
638.253	6.54
638.375	15.54
638.497	17.54
638.619	4.54
638.741	1.54
638.863	3.54
638.985	-0.46
639.107	5.54
639.23	14.54
639.352	29.54
639.474	5.54
639.596	3.54
639.718	9.54
639.84	29.54
639.962	39.54
640.084	27.54
640.206	26.54
640.328	16.54
640.45	19.54
640.573	24.54
640.695	16.54
640.817	9.54
640.939	40.54
641.061	19.54
641.183	13.54
641.305	21.54
641.427	12.54
641.549	22.54
641.671	38.54
641.793	19.54
641.915	17.54
642.038	14.54
642.16	10.54
642.282	16.54
642.404	6.54
642.526	27.54
642.648	12.54
642.77	26.54
642.892	13.54
643.014	34.54
643.136	19.54
643.258	19.54
643.381	29.54
643.503	46.54
643.625	21.54
643.747	9.54
643.869	8.54
643.991	16.54
644.113	14.54
644.235	6.54
644.357	17.54
644.479	33.54
644.601	14.54
644.723	17.54
644.846	20.54
644.968	17.54
645.09	17.54
645.212	25.54
645.334	25.54
645.456	8.54
645.578	31.54
645.7	12.54
645.822	32.54
645.944	28.54
646.066	29.54
646.188	5.54
646.311	14.54
646.433	18.54
646.555	30.54
646.677	37.54
646.799	24.54
646.921	10.54
647.043	28.54
647.165	-3.46
647.287	26.54
647.409	23.54
647.531	34.54
647.654	-5.46
647.776	27.54
647.898	13.54
648.02	11.54
648.142	8.54
648.264	15.54
648.386	2.54
648.508	9.54
648.63	22.54
648.752	16.54
648.874	14.54
648.997	22.54
649.119	33.54
649.241	22.54
649.363	31.54
649.485	24.54
649.607	10.54
649.729	3.54
649.851	16.54
649.973	24.54
650.095	19.54
650.217	9.54
650.34	-1.46
650.462	47.54
650.584	16.54
650.706	17.54
650.828	18.54
650.95	7.54
651.072	31.54
651.194	6.54
651.316	23.54
651.438	22.54
651.56	5.54
651.683	-2.46
651.805	25.54
651.927	12.54
652.049	11.54
652.171	7.54
652.293	9.54
652.415	8.54
652.537	3.54
652.659	19.54
652.781	26.54
652.903	28.54
653.026	32.54
653.148	18.54
653.27	16.54
653.392	32.54
653.514	13.54
653.636	16.54
653.758	12.54
653.88	8.54
654.002	5.54
654.124	5.54
654.247	9.54
654.369	18.54
654.491	14.54
654.613	13.54
654.735	-4.46
654.857	18.54
654.979	0.54
655.101	13.54
655.223	42.54
655.345	23.54
655.468	25.54
655.59	2.54
655.712	21.54
655.834	20.54
655.956	12.54
656.078	18.54
656.2	38.54
656.322	16.54
656.444	8.54
656.566	20.54
656.689	2.54
656.811	13.54
656.933	41.54
657.055	10.54
657.177	24.54
657.299	4.54
657.421	4.54
657.543	8.54
657.665	21.54
657.787	-3.46
657.91	9.54
658.032	-2.46
658.154	3.54
658.276	1.54
658.398	7.54
658.52	14.54
658.642	18.54
658.764	9.54
658.886	-6.46
659.009	29.54
659.131	32.54
659.253	38.54
659.375	17.54
659.497	13.54
659.619	13.54
659.741	29.54
659.863	22.54
659.985	8.54
660.108	31.54
660.23	12.54
660.352	12.54
660.474	11.54
660.596	16.54
660.718	22.54
660.84	27.54
660.962	25.54
661.084	3.54
661.207	1.54
661.329	19.54
661.451	11.54
661.573	0.54
661.695	22.54
661.817	24.54
661.939	32.54
662.061	36.54
662.184	9.54
662.306	12.54
662.428	38.54
662.55	36.54
662.672	19.54
662.794	12.54
662.916	19.54
663.038	21.54
663.161	30.54
663.283	9.54
663.405	21.54
663.527	0.54
663.649	21.54
663.771	9.54
663.893	1.54
664.015	15.54
664.138	21.54
664.26	17.54
664.382	20.54
664.504	-1.46
664.626	5.54
664.748	-0.46
664.87	-7.46
664.992	8.54
665.115	26.54
665.237	-2.46
665.359	7.54
665.481	6.54
665.603	10.54
665.725	17.54
665.847	-9.46
665.97	13.54
666.092	24.54
666.214	12.54
666.336	17.54
666.458	14.54
666.58	5.54
666.702	3.54
666.825	25.54
666.947	1.54
667.069	9.54
667.191	20.54
667.313	32.54
667.435	11.54
667.557	14.54
667.68	13.54
667.802	16.54
667.924	3.54
668.046	21.54
668.168	2.54
668.29	35.54
668.412	7.54
668.535	34.54
668.657	7.54
668.779	10.54
668.901	20.54
669.023	14.54
669.145	13.54
669.267	24.54
669.39	19.54
669.512	-0.46
669.634	11.54
669.756	4.54
669.878	10.54
670	10.54
670.123	21.54
670.245	32.54
670.367	18.54
670.489	12.54
670.611	-5.46
670.733	-11.46
670.856	12.54
670.978	22.54
671.1	-3.46
671.222	20.54
671.344	4.54
671.466	9.54
671.589	1.54
671.711	4.54
671.833	-6.46
671.955	5.54
672.077	6.54
672.199	19.54
672.322	41.54
672.444	10.54
672.566	12.54
672.688	20.54
672.81	27.54
672.932	26.54
673.055	17.54
673.177	18.54
673.299	4.54
673.421	-1.46
673.543	10.54
673.665	34.54
673.788	3.54
673.91	22.54
674.032	-13.46
674.154	21.54
674.276	21.54
674.399	-6.46
674.521	19.54
674.643	18.54
674.765	3.54
674.887	19.54
675.009	19.54
675.132	17.54
675.254	5.54
675.376	19.54
675.498	29.54
675.62	45.54
675.743	5.54
675.865	14.54
675.987	3.54
676.109	16.54
676.231	30.54
676.354	36.54
676.476	16.54
676.598	10.54
676.72	29.54
676.842	17.54
676.965	17.54
677.087	37.54
677.209	18.54
677.331	22.54
677.453	12.54
677.576	16.54
677.698	26.54
677.82	22.54
677.942	11.54
678.064	-5.46
678.187	14.54
678.309	10.54
678.431	9.54
678.553	12.54
678.675	28.54
678.798	36.54
678.92	20.54
679.042	24.54
679.164	6.54
679.286	31.54
679.409	5.54
679.531	-3.46
679.653	-0.46
679.775	-4.46
679.898	12.54
680.02	5.54
680.142	-11.46
680.264	25.54
680.386	5.54
680.509	6.54
680.631	27.54
680.753	12.54
680.875	-22.46
680.998	-1.46
681.12	17.54
681.242	14.54
681.364	-4.46
681.486	13.54
681.609	3.54
681.731	-1.46
681.853	13.54
681.975	-2.46
682.098	20.54
682.22	30.54
682.342	18.54
682.464	17.54
682.587	23.54
682.709	8.54
682.831	0.54
682.953	24.54
683.076	13.54
683.198	36.54
683.32	-10.46
683.442	4.54
683.565	24.54
683.687	11.54
683.809	7.54
683.931	-9.46
684.054	9.54
684.176	4.54
684.298	22.54
684.42	10.54
684.543	26.54
684.665	9.54
684.787	4.54
684.909	2.54
685.032	24.54
685.154	-8.46
685.276	5.54
685.398	11.54
685.521	6.54
685.643	17.54
685.765	8.54
685.887	14.54
686.01	13.54
686.132	-0.46
686.254	29.54
686.377	20.54
686.499	32.54
686.621	21.54
686.743	9.54
686.866	27.54
686.988	37.54
687.11	28.54
687.232	9.54
687.355	-9.46
687.477	13.54
687.599	26.54
687.722	30.54
687.844	10.54
687.966	16.54
688.088	3.54
688.211	36.54
688.333	30.54
688.455	9.54
688.578	29.54
688.7	19.54
688.822	14.54
688.944	7.54
689.067	23.54
689.189	14.54
689.311	12.54
689.434	6.54
689.556	28.54
689.678	37.54
689.801	-0.46
689.923	30.54
690.045	38.54
690.167	35.54
690.29	35.54
690.412	32.54
690.534	27.54
690.657	6.54
690.779	17.54
690.901	14.54
691.024	8.54
691.146	5.54
691.268	17.54
691.391	30.54
691.513	30.54
691.635	33.54
691.758	25.54
691.88	40.54
692.002	10.54
692.125	6.54
692.247	6.54
692.369	12.54
692.492	19.54
692.614	12.54
692.736	10.54
692.859	15.54
692.981	9.54
693.103	-4.46
693.226	26.54
693.348	34.54
693.47	18.54
693.593	26.54
693.715	36.54
693.837	48.54
693.96	24.54
694.082	18.54
694.204	28.54
694.327	9.54
694.449	6.54
694.571	17.54
694.694	26.54
694.816	13.54
694.938	6.54
695.061	3.54
695.183	13.54
695.305	20.54
695.428	22.54
695.55	14.54
695.672	6.54
695.795	25.54
695.917	19.54
696.04	12.54
696.162	7.54
696.284	12.54
696.407	16.54
696.529	1.54
696.651	34.54
696.774	21.54
696.896	32.54
697.019	18.54
697.141	5.54
697.263	17.54
697.386	6.54
697.508	25.54
697.63	28.54
697.753	30.54
697.875	27.54
697.998	18.54
698.12	14.54
698.242	14.54
698.365	-1.46
698.487	23.54
698.61	17.54
698.732	22.54
698.854	31.54
698.977	17.54
699.099	21.54
699.221	-5.46
699.344	-1.46
699.466	-4.46
699.589	10.54
699.711	26.54
699.834	8.54
699.956	23.54
700.078	20.54
700.201	2.54
700.323	28.54
700.446	18.54
700.568	12.54
700.69	42.54
700.813	19.54
700.935	20.54
701.058	9.54
701.18	6.54
701.302	22.54
701.425	8.54
701.547	21.54
701.67	9.54
701.792	26.54
701.915	-7.46
702.037	6.54
702.159	23.54
702.282	20.54
702.404	4.54
702.527	22.54
702.649	31.54
702.772	28.54
702.894	10.54
703.017	30.54
703.139	30.54
703.261	26.54
703.384	35.54
703.506	-2.46
703.629	8.54
703.751	21.54
703.874	10.54
703.996	1.54
704.119	-3.46
704.241	12.54
704.364	1.54
704.486	33.54
704.608	20.54
704.731	9.54
704.853	2.54
704.976	-7.46
705.098	10.54
705.221	8.54
705.343	16.54
705.466	11.54
705.588	14.54
705.711	15.54
705.833	24.54
705.956	5.54
706.078	26.54
706.201	6.54
706.323	16.54
706.446	19.54
