Data from LowRes_mercury_15_20_11_07_2024_HR4C61881__79__15-23-40-170.txt Node

Date: Thu Nov 07 15:23:40 EST 2024
User: crc00042
Spectrometer: HR4C6188
Trigger mode: 4
Integration Time (sec): 1.000000E-1
Scans to average: 1
Electric dark correction enabled: true
Nonlinearity correction enabled: false
Boxcar width: 0
XAxis mode: Wavelengths
Number of Pixels in Spectrum: 3648
>>>>>Begin Spectral Data<<<<<
245.66	-67.54
245.797	-67.54
245.934	-67.54
246.071	-69.54
246.208	15.46
246.344	16.46
246.481	-11.54
246.618	-11.54
246.755	8.46
246.892	-14.54
247.029	-8.54
247.165	-0.54
247.302	12.46
247.439	9.46
247.576	-1.54
247.713	-17.54
247.849	19.46
247.986	-0.54
248.123	6.46
248.26	-8.54
248.396	4.46
248.533	-7.54
248.67	-12.54
248.806	-3.54
248.943	-8.54
249.08	-1.54
249.216	-0.54
249.353	-7.54
249.49	6.46
249.626	-2.54
249.763	11.46
249.9	-1.54
250.036	-4.54
250.173	-2.54
250.309	6.46
250.446	6.46
250.582	6.46
250.719	-21.54
250.856	-7.54
250.992	-4.54
251.129	-0.54
251.265	-12.54
251.402	-4.54
251.538	-17.54
251.675	0.46
251.811	6.46
251.948	0.46
252.084	11.46
252.221	2.46
252.357	-7.54
252.493	31.46
252.63	-7.54
252.766	7.46
252.903	-12.54
253.039	-15.54
253.175	-5.54
253.312	-9.54
253.448	-5.54
253.585	-14.54
253.721	4.46
253.857	-3.54
253.994	8.46
254.13	-19.54
254.266	0.46
254.403	3.46
254.539	-2.54
254.675	7.46
254.811	1.46
254.948	-0.54
255.084	-9.54
255.22	-4.54
255.356	18.46
255.493	16.46
255.629	22.46
255.765	10.46
255.901	22.46
256.037	3.46
256.174	-6.54
256.31	-19.54
256.446	0.46
256.582	-4.54
256.718	4.46
256.854	28.46
256.991	-4.54
257.127	5.46
257.263	-6.54
257.399	-2.54
257.535	-4.54
257.671	11.46
257.807	-9.54
257.943	-4.54
258.079	-5.54
258.215	-11.54
258.351	20.46
258.487	-11.54
258.623	8.46
258.759	-9.54
258.895	-1.54
259.031	-0.54
259.167	-5.54
259.303	20.46
259.439	-7.54
259.575	-23.54
259.711	-15.54
259.847	-10.54
259.983	-0.54
260.119	-18.54
260.255	-4.54
260.391	5.46
260.527	8.46
260.663	22.46
260.799	31.46
260.934	-0.54
261.07	-3.54
261.206	-19.54
261.342	-18.54
261.478	19.46
261.614	-9.54
261.749	3.46
261.885	-3.54
262.021	-11.54
262.157	0.46
262.293	3.46
262.428	2.46
262.564	-8.54
262.7	14.46
262.836	15.46
262.971	25.46
263.107	9.46
263.243	30.46
263.378	-1.54
263.514	-28.54
263.65	0.46
263.785	-1.54
263.921	14.46
264.057	-1.54
264.192	11.46
264.328	14.46
264.464	-10.54
264.599	11.46
264.735	21.46
264.871	-3.54
265.006	5.46
265.142	3.46
265.277	18.46
265.413	14.46
265.548	-1.54
265.684	5.46
265.819	-7.54
265.955	-20.54
266.091	-16.54
266.226	-8.54
266.362	8.46
266.497	9.46
266.633	5.46
266.768	0.46
266.903	4.46
267.039	23.46
267.174	25.46
267.31	-15.54
267.445	-10.54
267.581	14.46
267.716	2.46
267.851	-7.54
267.987	13.46
268.122	11.46
268.258	-4.54
268.393	-19.54
268.528	6.46
268.664	-16.54
268.799	-6.54
268.934	14.46
269.07	-10.54
269.205	-1.54
269.34	20.46
269.476	1.46
269.611	-1.54
269.746	23.46
269.881	7.46
270.017	11.46
270.152	-2.54
270.287	10.46
270.422	15.46
270.558	-9.54
270.693	8.46
270.828	-20.54
270.963	-6.54
271.098	0.46
271.234	4.46
271.369	32.46
271.504	3.46
271.639	-29.54
271.774	-17.54
271.909	-2.54
272.045	-27.54
272.18	-12.54
272.315	-3.54
272.45	18.46
272.585	-4.54
272.72	-8.54
272.855	12.46
272.99	2.46
273.125	-10.54
273.26	-9.54
273.395	-13.54
273.53	-16.54
273.665	6.46
273.8	8.46
273.935	12.46
274.07	3.46
274.205	8.46
274.34	-0.54
274.475	-8.54
274.61	11.46
274.745	-10.54
274.88	14.46
275.015	-9.54
275.15	-5.54
275.285	10.46
275.42	-0.54
275.555	8.46
275.69	15.46
275.825	-5.54
275.959	5.46
276.094	4.46
276.229	-0.54
276.364	-11.54
276.499	-18.54
276.634	-7.54
276.768	-15.54
276.903	-4.54
277.038	11.46
277.173	5.46
277.308	-3.54
277.442	6.46
277.577	-7.54
277.712	11.46
277.847	-8.54
277.981	4.46
278.116	-14.54
278.251	-4.54
278.386	4.46
278.52	16.46
278.655	22.46
278.79	8.46
278.924	9.46
279.059	19.46
279.194	-13.54
279.328	32.46
279.463	9.46
279.598	14.46
279.732	-11.54
279.867	5.46
280.001	7.46
280.136	11.46
280.271	12.46
280.405	27.46
280.54	4.46
280.674	-7.54
280.809	-3.54
280.943	13.46
281.078	-5.54
281.213	15.46
281.347	5.46
281.482	17.46
281.616	-3.54
281.751	-0.54
281.885	-12.54
282.02	-11.54
282.154	13.46
282.288	-6.54
282.423	-7.54
282.557	-9.54
282.692	2.46
282.826	3.46
282.961	2.46
283.095	8.46
283.229	-1.54
283.364	-7.54
283.498	16.46
283.633	8.46
283.767	6.46
283.901	-6.54
284.036	-8.54
284.17	-30.54
284.304	-12.54
284.439	12.46
284.573	23.46
284.707	18.46
284.842	-6.54
284.976	-7.54
285.11	-2.54
285.244	15.46
285.379	29.46
285.513	6.46
285.647	5.46
285.781	9.46
285.916	15.46
286.05	8.46
286.184	33.46
286.318	11.46
286.453	-8.54
286.587	7.46
286.721	2.46
286.855	-8.54
286.989	1.46
287.123	0.46
287.258	-22.54
287.392	-5.54
287.526	3.46
287.66	0.46
287.794	8.46
287.928	18.46
288.062	8.46
288.196	3.46
288.33	11.46
288.464	35.46
288.598	12.46
288.733	4.46
288.867	13.46
289.001	9.46
289.135	12.46
289.269	-14.54
289.403	-2.54
289.537	14.46
289.671	-1.54
289.805	-23.54
289.939	0.46
290.073	3.46
290.207	17.46
290.34	2.46
290.474	35.46
290.608	18.46
290.742	3.46
290.876	-2.54
291.01	1.46
291.144	10.46
291.278	14.46
291.412	7.46
291.546	-8.54
291.679	14.46
291.813	-0.54
291.947	-8.54
292.081	-8.54
292.215	-8.54
292.349	8.46
292.482	17.46
292.616	5.46
292.75	7.46
292.884	12.46
293.018	3.46
293.151	-18.54
293.285	10.46
293.419	-6.54
293.553	-11.54
293.686	6.46
293.82	-5.54
293.954	0.46
294.088	29.46
294.221	-3.54
294.355	-13.54
294.489	-12.54
294.622	-7.54
294.756	0.46
294.89	13.46
295.023	20.46
295.157	6.46
295.291	3.46
295.424	2.46
295.558	-2.54
295.691	-9.54
295.825	-11.54
295.959	-4.54
296.092	10.46
296.226	9.46
296.359	8.46
296.493	14.46
296.627	8.46
296.76	5.46
296.894	6.46
297.027	9.46
297.161	0.46
297.294	2.46
297.428	-18.54
297.561	21.46
297.695	-5.54
297.828	-3.54
297.962	-3.54
298.095	-1.54
298.229	-1.54
298.362	-2.54
298.495	1.46
298.629	16.46
298.762	13.46
298.896	-0.54
299.029	-6.54
299.162	5.46
299.296	-2.54
299.429	-0.54
299.563	1.46
299.696	11.46
299.829	7.46
299.963	15.46
300.096	7.46
300.229	20.46
300.363	-13.54
300.496	-3.54
300.629	-12.54
300.763	7.46
300.896	-9.54
301.029	7.46
301.162	10.46
301.296	-9.54
301.429	-13.54
301.562	-17.54
301.695	20.46
301.829	4.46
301.962	26.46
302.095	7.46
302.228	0.46
302.362	-11.54
302.495	-12.54
302.628	10.46
302.761	11.46
302.894	-4.54
303.027	15.46
303.161	-7.54
303.294	-7.54
303.427	20.46
303.56	3.46
303.693	-12.54
303.826	-1.54
303.959	-0.54
304.092	-10.54
304.225	-5.54
304.359	4.46
304.492	0.46
304.625	-2.54
304.758	-4.54
304.891	0.46
305.024	10.46
305.157	19.46
305.29	7.46
305.423	3.46
305.556	29.46
305.689	7.46
305.822	7.46
305.955	12.46
306.088	10.46
306.221	-7.54
306.354	-13.54
306.487	-0.54
306.62	-8.54
306.752	5.46
306.885	10.46
307.018	4.46
307.151	11.46
307.284	0.46
307.417	-2.54
307.55	4.46
307.683	7.46
307.816	15.46
307.948	-13.54
308.081	9.46
308.214	15.46
308.347	27.46
308.48	4.46
308.613	-7.54
308.745	2.46
308.878	-12.54
309.011	2.46
309.144	-1.54
309.277	-5.54
309.409	9.46
309.542	0.46
309.675	20.46
309.808	9.46
309.94	19.46
310.073	-14.54
310.206	5.46
310.339	10.46
310.471	-4.54
310.604	3.46
310.737	0.46
310.869	5.46
311.002	3.46
311.135	-5.54
311.267	-11.54
311.4	-10.54
311.533	10.46
311.665	10.46
311.798	12.46
311.93	23.46
312.063	32.46
312.196	31.46
312.328	76.46
312.461	42.46
312.593	31.46
312.726	52.46
312.859	94.46
312.991	146.46
313.124	45.46
313.256	20.46
313.389	11.46
313.521	-4.54
313.654	2.46
313.786	-14.54
313.919	-19.54
314.051	-11.54
314.184	2.46
314.316	-1.54
314.449	-7.54
314.581	-10.54
314.714	-3.54
314.846	16.46
314.978	-6.54
315.111	-1.54
315.243	4.46
315.376	12.46
315.508	2.46
315.641	-0.54
315.773	20.46
315.905	13.46
316.038	-0.54
316.17	7.46
316.302	-2.54
316.435	7.46
316.567	-15.54
316.699	27.46
316.832	1.46
316.964	7.46
317.096	-2.54
317.229	-1.54
317.361	-32.54
317.493	-8.54
317.625	-5.54
317.758	6.46
317.89	14.46
318.022	3.46
318.155	-7.54
318.287	-9.54
318.419	8.46
318.551	7.46
318.683	0.46
318.816	22.46
318.948	5.46
319.08	-20.54
319.212	13.46
319.344	-6.54
319.477	3.46
319.609	18.46
319.741	8.46
319.873	-14.54
320.005	-4.54
320.137	-1.54
320.269	10.46
320.401	0.46
320.534	-17.54
320.666	-23.54
320.798	6.46
320.93	-3.54
321.062	-13.54
321.194	-14.54
321.326	8.46
321.458	3.46
321.59	-10.54
321.722	-10.54
321.854	10.46
321.986	-8.54
322.118	2.46
322.25	-18.54
322.382	12.46
322.514	-10.54
322.646	-3.54
322.778	3.46
322.91	-29.54
323.042	-8.54
323.174	4.46
323.306	-2.54
323.438	-9.54
323.57	-7.54
323.702	19.46
323.834	9.46
323.966	-4.54
324.097	7.46
324.229	16.46
324.361	19.46
324.493	5.46
324.625	-11.54
324.757	14.46
324.889	-9.54
325.021	16.46
325.152	33.46
325.284	35.46
325.416	-9.54
325.548	18.46
325.68	2.46
325.811	18.46
325.943	8.46
326.075	14.46
326.207	-6.54
326.339	19.46
326.47	4.46
326.602	11.46
326.734	1.46
326.866	13.46
326.997	-1.54
327.129	12.46
327.261	-19.54
327.392	2.46
327.524	-15.54
327.656	-4.54
327.787	-3.54
327.919	6.46
328.051	11.46
328.182	14.46
328.314	14.46
328.446	-2.54
328.577	8.46
328.709	-2.54
328.841	-6.54
328.972	-8.54
329.104	11.46
329.235	8.46
329.367	-11.54
329.499	-13.54
329.63	22.46
329.762	7.46
329.893	13.46
330.025	8.46
330.156	-4.54
330.288	-0.54
330.419	0.46
330.551	22.46
330.683	5.46
330.814	-13.54
330.946	-6.54
331.077	-1.54
331.208	-5.54
331.34	5.46
331.471	2.46
331.603	15.46
331.734	-4.54
331.866	-1.54
331.997	-11.54
332.129	12.46
332.26	9.46
332.392	29.46
332.523	9.46
332.654	-15.54
332.786	3.46
332.917	-9.54
333.048	23.46
333.18	18.46
333.311	-9.54
333.443	3.46
333.574	20.46
333.705	31.46
333.837	38.46
333.968	127.46
334.099	209.46
334.231	206.46
334.362	41.46
334.493	29.46
334.624	10.46
334.756	22.46
334.887	-2.54
335.018	22.46
335.15	12.46
335.281	18.46
335.412	16.46
335.543	15.46
335.675	-3.54
335.806	15.46
335.937	2.46
336.068	7.46
336.199	27.46
336.331	1.46
336.462	1.46
336.593	0.46
336.724	4.46
336.855	13.46
336.986	16.46
337.118	15.46
337.249	3.46
337.38	6.46
337.511	14.46
337.642	25.46
337.773	11.46
337.904	24.46
338.035	18.46
338.166	-7.54
338.298	12.46
338.429	8.46
338.56	37.46
338.691	33.46
338.822	6.46
338.953	25.46
339.084	32.46
339.215	27.46
339.346	13.46
339.477	6.46
339.608	-0.54
339.739	5.46
339.87	-5.54
340.001	1.46
340.132	8.46
340.263	12.46
340.394	14.46
340.525	10.46
340.656	4.46
340.787	-8.54
340.918	16.46
341.049	4.46
341.179	19.46
341.31	4.46
341.441	26.46
341.572	13.46
341.703	0.46
341.834	0.46
341.965	27.46
342.096	15.46
342.227	24.46
342.357	8.46
342.488	18.46
342.619	28.46
342.75	26.46
342.881	-9.54
343.012	35.46
343.142	51.46
343.273	5.46
343.404	18.46
343.535	47.46
343.666	39.46
343.796	7.46
343.927	23.46
344.058	32.46
344.189	35.46
344.319	33.46
344.45	22.46
344.581	14.46
344.712	7.46
344.842	26.46
344.973	34.46
345.104	21.46
345.234	24.46
345.365	14.46
345.496	6.46
345.626	22.46
345.757	37.46
345.888	20.46
346.018	32.46
346.149	20.46
346.28	39.46
346.41	2.46
346.541	15.46
346.672	20.46
346.802	28.46
346.933	13.46
347.063	25.46
347.194	30.46
347.325	30.46
347.455	38.46
347.586	31.46
347.716	19.46
347.847	22.46
347.977	24.46
348.108	39.46
348.238	24.46
348.369	28.46
348.499	43.46
348.63	46.46
348.76	43.46
348.891	46.46
349.021	50.46
349.152	57.46
349.282	44.46
349.413	38.46
349.543	30.46
349.674	27.46
349.804	33.46
349.935	20.46
350.065	28.46
350.196	3.46
350.326	25.46
350.456	8.46
350.587	24.46
350.717	27.46
350.848	27.46
350.978	16.46
351.108	6.46
351.239	39.46
351.369	22.46
351.499	16.46
351.63	35.46
351.76	28.46
351.89	30.46
352.021	29.46
352.151	23.46
352.281	37.46
352.412	21.46
352.542	27.46
352.672	16.46
352.803	9.46
352.933	20.46
353.063	14.46
353.193	14.46
353.324	10.46
353.454	28.46
353.584	21.46
353.714	19.46
353.845	9.46
353.975	31.46
354.105	13.46
354.235	0.46
354.365	18.46
354.496	17.46
354.626	21.46
354.756	32.46
354.886	32.46
355.016	24.46
355.146	9.46
355.277	27.46
355.407	15.46
355.537	14.46
355.667	13.46
355.797	23.46
355.927	21.46
356.057	26.46
356.187	22.46
356.318	21.46
356.448	29.46
356.578	34.46
356.708	33.46
356.838	30.46
356.968	21.46
357.098	39.46
357.228	43.46
357.358	28.46
357.488	25.46
357.618	58.46
357.748	45.46
357.878	30.46
358.008	19.46
358.138	20.46
358.268	12.46
358.398	29.46
358.528	-9.54
358.658	28.46
358.788	30.46
358.918	23.46
359.048	18.46
359.178	40.46
359.308	40.46
359.438	45.46
359.568	50.46
359.698	47.46
359.827	26.46
359.957	28.46
360.087	33.46
360.217	31.46
360.347	12.46
360.477	38.46
360.607	0.46
360.737	39.46
360.866	28.46
360.996	9.46
361.126	16.46
361.256	45.46
361.386	35.46
361.516	28.46
361.645	0.46
361.775	33.46
361.905	16.46
362.035	37.46
362.165	31.46
362.294	46.46
362.424	59.46
362.554	58.46
362.684	30.46
362.813	48.46
362.943	68.46
363.073	64.46
363.203	68.46
363.332	78.46
363.462	89.46
363.592	103.46
363.721	116.46
363.851	167.46
363.981	222.46
364.111	243.46
364.24	306.46
364.37	477.46
364.5	832.46
364.629	1811.46
364.759	3880.46
364.888	6324.46
365.018	9401.46
365.148	14819.46
365.277	12965.46
365.407	4812.46
365.537	3122.46
365.666	4026.46
365.796	1832.46
365.925	805.46
366.055	757.46
366.184	1059.46
366.314	1410.46
366.444	2456.46
366.573	2120.46
366.703	664.46
366.832	225.46
366.962	112.46
367.091	79.46
367.221	74.46
367.35	31.46
367.48	84.46
367.609	71.46
367.739	61.46
367.868	36.46
367.998	42.46
368.127	48.46
368.257	50.46
368.386	50.46
368.516	67.46
368.645	48.46
368.775	37.46
368.904	23.46
369.033	31.46
369.163	26.46
369.292	29.46
369.422	20.46
369.551	40.46
369.68	47.46
369.81	41.46
369.939	32.46
370.069	33.46
370.198	26.46
370.327	15.46
370.457	61.46
370.586	63.46
370.715	34.46
370.845	24.46
370.974	41.46
371.103	41.46
371.233	66.46
371.362	51.46
371.491	39.46
371.621	67.46
371.75	37.46
371.879	35.46
372.008	20.46
372.138	38.46
372.267	47.46
372.396	45.46
372.525	24.46
372.655	39.46
372.784	23.46
372.913	20.46
373.042	12.46
373.172	41.46
373.301	18.46
373.43	24.46
373.559	2.46
373.688	27.46
373.818	23.46
373.947	28.46
374.076	14.46
374.205	35.46
374.334	6.46
374.463	13.46
374.593	16.46
374.722	27.46
374.851	38.46
374.98	20.46
375.109	23.46
375.238	31.46
375.367	48.46
375.496	-1.54
375.625	13.46
375.755	30.46
375.884	46.46
376.013	33.46
376.142	21.46
376.271	19.46
376.4	38.46
376.529	42.46
376.658	32.46
376.787	11.46
376.916	20.46
377.045	26.46
377.174	30.46
377.303	15.46
377.432	41.46
377.561	4.46
377.69	17.46
377.819	38.46
377.948	23.46
378.077	31.46
378.206	19.46
378.335	14.46
378.464	6.46
378.593	33.46
378.722	10.46
378.851	18.46
378.98	29.46
379.108	7.46
379.237	3.46
379.366	18.46
379.495	33.46
379.624	32.46
379.753	17.46
379.882	22.46
380.011	11.46
380.14	11.46
380.268	18.46
380.397	18.46
380.526	46.46
380.655	10.46
380.784	13.46
380.913	14.46
381.041	11.46
381.17	-10.54
381.299	21.46
381.428	12.46
381.557	16.46
381.685	25.46
381.814	30.46
381.943	22.46
382.072	-4.54
382.2	6.46
382.329	26.46
382.458	6.46
382.587	26.46
382.715	30.46
382.844	19.46
382.973	17.46
383.102	20.46
383.23	22.46
383.359	-10.54
383.488	28.46
383.616	34.46
383.745	5.46
383.874	14.46
384.003	0.46
384.131	14.46
384.26	22.46
384.389	31.46
384.517	8.46
384.646	11.46
384.774	18.46
384.903	51.46
385.032	28.46
385.16	24.46
385.289	38.46
385.418	22.46
385.546	15.46
385.675	35.46
385.803	31.46
385.932	20.46
386.06	17.46
386.189	24.46
386.318	28.46
386.446	12.46
386.575	31.46
386.703	29.46
386.832	18.46
386.96	10.46
387.089	43.46
387.217	11.46
387.346	15.46
387.474	28.46
387.603	20.46
387.731	13.46
387.86	22.46
387.988	14.46
388.117	22.46
388.245	-1.54
388.374	20.46
388.502	32.46
388.631	12.46
388.759	4.46
388.888	13.46
389.016	5.46
389.144	28.46
389.273	40.46
389.401	-4.54
389.53	6.46
389.658	38.46
389.786	20.46
389.915	19.46
390.043	14.46
390.172	24.46
390.3	58.46
390.428	31.46
390.557	14.46
390.685	32.46
390.813	46.46
390.942	59.46
391.07	31.46
391.198	16.46
391.327	8.46
391.455	6.46
391.583	34.46
391.712	16.46
391.84	25.46
391.968	15.46
392.096	-6.54
392.225	31.46
392.353	40.46
392.481	35.46
392.609	42.46
392.738	13.46
392.866	11.46
392.994	20.46
393.122	43.46
393.251	30.46
393.379	23.46
393.507	9.46
393.635	12.46
393.764	24.46
393.892	31.46
394.02	16.46
394.148	28.46
394.276	17.46
394.404	40.46
394.533	14.46
394.661	30.46
394.789	32.46
394.917	38.46
395.045	27.46
395.173	11.46
395.302	16.46
395.43	22.46
395.558	37.46
395.686	28.46
395.814	32.46
395.942	27.46
396.07	27.46
396.198	22.46
396.326	25.46
396.454	28.46
396.582	29.46
396.711	9.46
396.839	34.46
396.967	32.46
397.095	8.46
397.223	37.46
397.351	57.46
397.479	41.46
397.607	41.46
397.735	38.46
397.863	33.46
397.991	41.46
398.119	46.46
398.247	45.46
398.375	41.46
398.503	49.46
398.631	53.46
398.759	51.46
398.887	49.46
399.015	48.46
399.143	66.46
399.271	61.46
399.399	70.46
399.526	79.46
399.654	89.46
399.782	66.46
399.91	98.46
400.038	88.46
400.166	87.46
400.294	89.46
400.422	94.46
400.55	85.46
400.678	95.46
400.805	115.46
400.933	115.46
401.061	93.46
401.189	107.46
401.317	136.46
401.445	94.46
401.573	84.46
401.7	47.46
401.828	43.46
401.956	34.46
402.084	47.46
402.212	35.46
402.34	20.46
402.467	36.46
402.595	45.46
402.723	25.46
402.851	74.46
402.978	55.46
403.106	82.46
403.234	89.46
403.362	127.46
403.489	136.46
403.617	167.46
403.745	200.46
403.873	279.46
404	550.46
404.128	1444.46
404.256	3941.46
404.384	5129.46
404.511	5462.46
404.639	7245.46
404.767	11366.46
404.894	14638.46
405.022	4894.46
405.15	1311.46
405.277	419.46
405.405	238.46
405.533	132.46
405.66	94.46
405.788	48.46
405.916	63.46
406.043	47.46
406.171	39.46
406.299	66.46
406.426	61.46
406.554	69.46
406.681	68.46
406.809	46.46
406.937	48.46
407.064	61.46
407.192	141.46
407.319	294.46
407.447	514.46
407.574	523.46
407.702	614.46
407.83	866.46
407.957	1604.46
408.085	942.46
408.212	296.46
408.34	86.46
408.467	52.46
408.595	50.46
408.722	38.46
408.85	45.46
408.977	42.46
409.105	32.46
409.232	18.46
409.36	29.46
409.487	29.46
409.615	21.46
409.742	39.46
409.87	34.46
409.997	37.46
410.125	41.46
410.252	50.46
410.379	23.46
410.507	26.46
410.634	9.46
410.762	26.46
410.889	53.46
411.017	34.46
411.144	42.46
411.271	34.46
411.399	24.46
411.526	36.46
411.653	45.46
411.781	46.46
411.908	46.46
412.036	18.46
412.163	32.46
412.29	23.46
412.418	8.46
412.545	31.46
412.672	20.46
412.8	49.46
412.927	36.46
413.054	34.46
413.182	22.46
413.309	12.46
413.436	5.46
413.564	16.46
413.691	12.46
413.818	31.46
413.945	17.46
414.073	43.46
414.2	38.46
414.327	36.46
414.454	30.46
414.582	23.46
414.709	31.46
414.836	30.46
414.963	35.46
415.091	33.46
415.218	25.46
415.345	26.46
415.472	34.46
415.6	18.46
415.727	30.46
415.854	35.46
415.981	21.46
416.108	19.46
416.236	28.46
416.363	34.46
416.49	24.46
416.617	35.46
416.744	34.46
416.871	41.46
416.998	15.46
417.126	45.46
417.253	15.46
417.38	30.46
417.507	14.46
417.634	33.46
417.761	42.46
417.888	37.46
418.015	32.46
418.143	27.46
418.27	47.46
418.397	40.46
418.524	19.46
418.651	32.46
418.778	40.46
418.905	60.46
419.032	55.46
419.159	37.46
419.286	70.46
419.413	54.46
419.54	52.46
419.667	25.46
419.794	43.46
419.921	47.46
420.048	46.46
420.175	47.46
420.302	32.46
420.429	49.46
420.556	41.46
420.683	36.46
420.81	45.46
420.937	60.46
421.064	69.46
421.191	69.46
421.318	62.46
421.445	84.46
421.572	49.46
421.699	55.46
421.826	36.46
421.953	32.46
422.08	27.46
422.207	9.46
422.334	17.46
422.461	35.46
422.588	18.46
422.714	17.46
422.841	56.46
422.968	31.46
423.095	12.46
423.222	23.46
423.349	47.46
423.476	22.46
423.603	11.46
423.729	8.46
423.856	8.46
423.983	33.46
424.11	13.46
424.237	22.46
424.364	15.46
424.491	32.46
424.617	1.46
424.744	15.46
424.871	22.46
424.998	29.46
425.125	3.46
425.251	13.46
425.378	22.46
425.505	24.46
425.632	14.46
425.758	4.46
425.885	29.46
426.012	22.46
426.139	31.46
426.266	12.46
426.392	21.46
426.519	18.46
426.646	12.46
426.772	34.46
426.899	18.46
427.026	22.46
427.153	23.46
427.279	35.46
427.406	29.46
427.533	25.46
427.659	14.46
427.786	12.46
427.913	36.46
428.039	30.46
428.166	19.46
428.293	22.46
428.419	16.46
428.546	18.46
428.673	11.46
428.799	22.46
428.926	21.46
429.053	32.46
429.179	25.46
429.306	27.46
429.433	37.46
429.559	30.46
429.686	26.46
429.812	15.46
429.939	23.46
430.066	16.46
430.192	4.46
430.319	19.46
430.445	42.46
430.572	29.46
430.699	22.46
430.825	29.46
430.952	40.46
431.078	32.46
431.205	30.46
431.331	35.46
431.458	44.46
431.584	27.46
431.711	11.46
431.837	11.46
431.964	18.46
432.09	27.46
432.217	6.46
432.343	17.46
432.47	45.46
432.596	34.46
432.723	11.46
432.849	7.46
432.976	20.46
433.102	30.46
433.229	39.46
433.355	63.46
433.482	82.46
433.608	109.46
433.735	98.46
433.861	104.46
433.987	165.46
434.114	200.46
434.24	185.46
434.367	206.46
434.493	191.46
434.62	259.46
434.746	399.46
434.872	652.46
434.999	824.46
435.125	1729.46
435.252	5515.46
435.378	13435.46
435.504	15224.46
435.631	15444.46
435.757	15681.46
435.883	15681.46
436.01	15681.46
436.136	15681.46
436.262	15681.46
436.389	3474.46
436.515	2108.46
436.641	778.46
436.768	639.46
436.894	388.46
437.02	379.46
437.147	275.46
437.273	293.46
437.399	213.46
437.526	244.46
437.652	175.46
437.778	181.46
437.904	141.46
438.031	154.46
438.157	143.46
438.283	153.46
438.409	105.46
438.536	125.46
438.662	116.46
438.788	121.46
438.914	100.46
439.041	117.46
439.167	107.46
439.293	100.46
439.419	82.46
439.546	85.46
439.672	74.46
439.798	84.46
439.924	103.46
440.05	90.46
440.177	76.46
440.303	78.46
440.429	59.46
440.555	74.46
440.681	63.46
440.807	70.46
440.934	55.46
441.06	62.46
441.186	63.46
441.312	56.46
441.438	66.46
441.564	59.46
441.69	55.46
441.816	53.46
441.943	46.46
442.069	50.46
442.195	56.46
442.321	44.46
442.447	34.46
442.573	43.46
442.699	38.46
442.825	19.46
442.951	44.46
443.077	66.46
443.203	67.46
443.33	56.46
443.456	28.46
443.582	38.46
443.708	39.46
443.834	59.46
443.96	48.46
444.086	60.46
444.212	53.46
444.338	53.46
444.464	56.46
444.59	53.46
444.716	40.46
444.842	43.46
444.968	30.46
445.094	30.46
445.22	30.46
445.346	38.46
445.472	30.46
445.598	42.46
445.724	30.46
445.85	55.46
445.976	24.46
446.102	44.46
446.228	44.46
446.354	33.46
446.48	36.46
446.605	29.46
446.731	26.46
446.857	36.46
446.983	34.46
447.109	27.46
447.235	29.46
447.361	25.46
447.487	33.46
447.613	41.46
447.739	22.46
447.865	25.46
447.99	22.46
448.116	20.46
448.242	33.46
448.368	25.46
448.494	26.46
448.62	45.46
448.746	25.46
448.872	25.46
448.997	6.46
449.123	30.46
449.249	37.46
449.375	30.46
449.501	26.46
449.627	31.46
449.752	47.46
449.878	19.46
450.004	19.46
450.13	34.46
450.256	19.46
450.381	35.46
450.507	33.46
450.633	27.46
450.759	36.46
450.884	28.46
451.01	20.46
451.136	38.46
451.262	21.46
451.388	20.46
451.513	15.46
451.639	24.46
451.765	19.46
451.89	34.46
452.016	22.46
452.142	24.46
452.268	41.46
452.393	25.46
452.519	6.46
452.645	26.46
452.771	20.46
452.896	19.46
453.022	20.46
453.148	48.46
453.273	24.46
453.399	9.46
453.525	4.46
453.65	14.46
453.776	22.46
453.902	28.46
454.027	34.46
454.153	40.46
454.279	35.46
454.404	37.46
454.53	56.46
454.656	53.46
454.781	18.46
454.907	22.46
455.032	25.46
455.158	51.46
455.284	38.46
455.409	23.46
455.535	39.46
455.66	21.46
455.786	14.46
455.912	25.46
456.037	8.46
456.163	24.46
456.288	37.46
456.414	9.46
456.539	16.46
456.665	30.46
456.791	14.46
456.916	16.46
457.042	15.46
457.167	32.46
457.293	15.46
457.418	18.46
457.544	31.46
457.669	24.46
457.795	11.46
457.92	9.46
458.046	16.46
458.171	41.46
458.297	28.46
458.422	22.46
458.548	16.46
458.673	23.46
458.799	4.46
458.924	21.46
459.05	21.46
459.175	20.46
459.301	30.46
459.426	26.46
459.552	38.46
459.677	16.46
459.803	51.46
459.928	30.46
460.053	35.46
460.179	37.46
460.304	29.46
460.43	5.46
460.555	23.46
460.681	3.46
460.806	26.46
460.931	41.46
461.057	20.46
461.182	18.46
461.308	30.46
461.433	18.46
461.558	16.46
461.684	39.46
461.809	42.46
461.934	24.46
462.06	43.46
462.185	22.46
462.311	24.46
462.436	21.46
462.561	24.46
462.687	20.46
462.812	22.46
462.937	20.46
463.063	10.46
463.188	25.46
463.313	35.46
463.439	6.46
463.564	24.46
463.689	35.46
463.814	28.46
463.94	17.46
464.065	33.46
464.19	44.46
464.316	3.46
464.441	3.46
464.566	11.46
464.692	18.46
464.817	15.46
464.942	26.46
465.067	24.46
465.193	11.46
465.318	5.46
465.443	30.46
465.568	11.46
465.694	27.46
465.819	56.46
465.944	39.46
466.069	26.46
466.194	32.46
466.32	28.46
466.445	37.46
466.57	18.46
466.695	35.46
466.82	55.46
466.946	31.46
467.071	19.46
467.196	23.46
467.321	38.46
467.446	32.46
467.572	32.46
467.697	23.46
467.822	35.46
467.947	38.46
468.072	41.46
468.197	15.46
468.323	6.46
468.448	32.46
468.573	7.46
468.698	40.46
468.823	37.46
468.948	30.46
469.073	36.46
469.198	49.46
469.324	58.46
469.449	36.46
469.574	62.46
469.699	55.46
469.824	46.46
469.949	43.46
470.074	41.46
470.199	67.46
470.324	35.46
470.449	38.46
470.574	28.46
470.7	37.46
470.825	40.46
470.95	47.46
471.075	28.46
471.2	44.46
471.325	41.46
471.45	32.46
471.575	31.46
471.7	21.46
471.825	15.46
471.95	36.46
472.075	17.46
472.2	15.46
472.325	38.46
472.45	17.46
472.575	35.46
472.7	33.46
472.825	30.46
472.95	41.46
473.075	42.46
473.2	27.46
473.325	48.46
473.45	46.46
473.575	38.46
473.7	44.46
473.825	30.46
473.95	26.46
474.075	29.46
474.2	8.46
474.325	14.46
474.45	35.46
474.574	50.46
474.699	42.46
474.824	18.46
474.949	-1.54
475.074	6.46
475.199	26.46
475.324	27.46
475.449	4.46
475.574	20.46
475.699	29.46
475.824	7.46
475.949	16.46
476.073	18.46
476.198	31.46
476.323	9.46
476.448	13.46
476.573	23.46
476.698	24.46
476.823	24.46
476.947	16.46
477.072	10.46
477.197	25.46
477.322	11.46
477.447	11.46
477.572	34.46
477.697	10.46
477.821	18.46
477.946	36.46
478.071	18.46
478.196	35.46
478.321	31.46
478.445	16.46
478.57	24.46
478.695	4.46
478.82	31.46
478.945	12.46
479.069	-3.54
479.194	31.46
479.319	23.46
479.444	20.46
479.569	10.46
479.693	9.46
479.818	26.46
479.943	28.46
480.068	43.46
480.192	24.46
480.317	15.46
480.442	7.46
480.567	18.46
480.691	21.46
480.816	33.46
480.941	13.46
481.066	21.46
481.19	23.46
481.315	27.46
481.44	30.46
481.564	3.46
481.689	11.46
481.814	10.46
481.938	20.46
482.063	3.46
482.188	4.46
482.313	16.46
482.437	6.46
482.562	15.46
482.687	12.46
482.811	29.46
482.936	19.46
483.061	16.46
483.185	19.46
483.31	25.46
483.435	19.46
483.559	16.46
483.684	15.46
483.808	24.46
483.933	7.46
484.058	16.46
484.182	16.46
484.307	13.46
484.432	32.46
484.556	10.46
484.681	17.46
484.805	26.46
484.93	0.46
485.055	28.46
485.179	32.46
485.304	32.46
485.428	27.46
485.553	18.46
485.678	18.46
485.802	13.46
485.927	45.46
486.051	46.46
486.176	20.46
486.3	9.46
486.425	27.46
486.549	29.46
486.674	20.46
486.799	29.46
486.923	10.46
487.048	15.46
487.172	28.46
487.297	16.46
487.421	21.46
487.546	17.46
487.67	25.46
487.795	24.46
487.919	21.46
488.044	29.46
488.168	23.46
488.293	17.46
488.417	23.46
488.542	30.46
488.666	39.46
488.791	27.46
488.915	24.46
489.04	23.46
489.164	25.46
489.289	33.46
489.413	11.46
489.538	19.46
489.662	35.46
489.786	35.46
489.911	13.46
490.035	15.46
490.16	0.46
490.284	14.46
490.409	7.46
490.533	22.46
490.658	45.46
490.782	32.46
490.906	43.46
491.031	112.46
491.155	133.46
491.28	138.46
491.404	167.46
491.528	252.46
491.653	162.46
491.777	62.46
491.902	28.46
492.026	22.46
492.15	13.46
492.275	38.46
492.399	23.46
492.524	19.46
492.648	36.46
492.772	20.46
492.897	27.46
493.021	24.46
493.145	33.46
493.27	29.46
493.394	25.46
493.518	11.46
493.643	12.46
493.767	27.46
493.891	18.46
494.016	24.46
494.14	22.46
494.264	27.46
494.389	18.46
494.513	27.46
494.637	9.46
494.762	23.46
494.886	18.46
495.01	11.46
495.134	28.46
495.259	28.46
495.383	17.46
495.507	25.46
495.632	39.46
495.756	48.46
495.88	32.46
496.004	36.46
496.129	-6.54
496.253	30.46
496.377	31.46
496.501	40.46
496.626	22.46
496.75	21.46
496.874	27.46
496.998	24.46
497.123	21.46
497.247	13.46
497.371	13.46
497.495	18.46
497.62	24.46
497.744	19.46
497.868	3.46
497.992	31.46
498.116	29.46
498.241	29.46
498.365	20.46
498.489	7.46
498.613	18.46
498.737	23.46
498.862	27.46
498.986	0.46
499.11	21.46
499.234	44.46
499.358	16.46
499.482	27.46
499.607	17.46
499.731	19.46
499.855	34.46
499.979	22.46
500.103	7.46
500.227	14.46
500.351	22.46
500.476	9.46
500.6	10.46
500.724	23.46
500.848	34.46
500.972	32.46
501.096	14.46
501.22	22.46
501.344	4.46
501.469	12.46
501.593	25.46
501.717	35.46
501.841	29.46
501.965	14.46
502.089	33.46
502.213	33.46
502.337	30.46
502.461	12.46
502.585	25.46
502.709	24.46
502.834	11.46
502.958	28.46
503.082	23.46
503.206	24.46
503.33	26.46
503.454	18.46
503.578	38.46
503.702	35.46
503.826	11.46
503.95	13.46
504.074	10.46
504.198	16.46
504.322	10.46
504.446	11.46
504.57	28.46
504.694	26.46
504.818	10.46
504.942	50.46
505.066	16.46
505.19	18.46
505.314	18.46
505.438	27.46
505.562	38.46
505.686	32.46
505.81	36.46
505.934	17.46
506.058	19.46
506.182	19.46
506.306	22.46
506.43	30.46
506.554	32.46
506.678	20.46
506.802	18.46
506.926	18.46
507.05	12.46
507.174	43.46
507.298	37.46
507.422	11.46
507.546	23.46
507.67	37.46
507.794	13.46
507.918	24.46
508.042	29.46
508.165	9.46
508.289	-1.54
508.413	32.46
508.537	30.46
508.661	16.46
508.785	11.46
508.909	13.46
509.033	18.46
509.157	44.46
509.281	37.46
509.405	49.46
509.528	45.46
509.652	47.46
509.776	28.46
509.9	31.46
510.024	35.46
510.148	19.46
510.272	30.46
510.396	30.46
510.519	18.46
510.643	33.46
510.767	32.46
510.891	39.46
511.015	31.46
511.139	38.46
511.263	47.46
511.386	40.46
511.51	41.46
511.634	36.46
511.758	52.46
511.882	36.46
512.006	41.46
512.129	45.46
512.253	85.46
512.377	78.46
512.501	103.46
512.625	80.46
512.748	94.46
512.872	81.46
512.996	69.46
513.12	51.46
513.244	41.46
513.367	42.46
513.491	83.46
513.615	69.46
513.739	72.46
513.862	69.46
513.986	82.46
514.11	90.46
514.234	100.46
514.358	106.46
514.481	112.46
514.605	101.46
514.729	107.46
514.853	124.46
514.976	107.46
515.1	88.46
515.224	122.46
515.348	82.46
515.471	85.46
515.595	122.46
515.719	129.46
515.842	213.46
515.966	278.46
516.09	286.46
516.214	304.46
516.337	334.46
516.461	226.46
516.585	104.46
516.708	28.46
516.832	30.46
516.956	12.46
517.08	17.46
517.203	7.46
517.327	14.46
517.451	25.46
517.574	27.46
517.698	27.46
517.822	16.46
517.945	18.46
518.069	18.46
518.193	36.46
518.316	24.46
518.44	12.46
518.564	18.46
518.687	-5.54
518.811	26.46
518.935	32.46
519.058	3.46
519.182	10.46
519.306	21.46
519.429	23.46
519.553	52.46
519.676	15.46
519.8	26.46
519.924	16.46
520.047	23.46
520.171	2.46
520.294	24.46
520.418	9.46
520.542	11.46
520.665	30.46
520.789	7.46
520.913	22.46
521.036	-5.54
521.16	9.46
521.283	28.46
521.407	20.46
521.53	0.46
521.654	7.46
521.778	31.46
521.901	7.46
522.025	6.46
522.148	-1.54
522.272	14.46
522.395	17.46
522.519	34.46
522.643	7.46
522.766	7.46
522.89	3.46
523.013	17.46
523.137	7.46
523.26	5.46
523.384	22.46
523.507	14.46
523.631	21.46
523.754	20.46
523.878	14.46
524.002	28.46
524.125	18.46
524.249	-0.54
524.372	28.46
524.496	7.46
524.619	14.46
524.743	26.46
524.866	18.46
524.99	16.46
525.113	11.46
525.237	19.46
525.36	19.46
525.484	37.46
525.607	16.46
525.731	18.46
525.854	15.46
525.978	27.46
526.101	5.46
526.224	21.46
526.348	20.46
526.471	16.46
526.595	25.46
526.718	24.46
526.842	-1.54
526.965	38.46
527.089	23.46
527.212	12.46
527.336	18.46
527.459	22.46
527.582	15.46
527.706	27.46
527.829	27.46
527.953	21.46
528.076	0.46
528.2	12.46
528.323	17.46
528.446	15.46
528.57	8.46
528.693	15.46
528.817	6.46
528.94	32.46
529.064	42.46
529.187	9.46
529.31	7.46
529.434	2.46
529.557	2.46
529.68	5.46
529.804	15.46
529.927	20.46
530.051	16.46
530.174	-1.54
530.297	18.46
530.421	24.46
530.544	24.46
530.668	31.46
530.791	10.46
530.914	23.46
531.038	19.46
531.161	9.46
531.284	10.46
531.408	3.46
531.531	13.46
531.654	7.46
531.778	11.46
531.901	7.46
532.024	33.46
532.148	-8.54
532.271	3.46
532.394	18.46
532.518	7.46
532.641	16.46
532.764	21.46
532.888	14.46
533.011	-8.54
533.134	21.46
533.258	29.46
533.381	0.46
533.504	13.46
533.628	2.46
533.751	10.46
533.874	11.46
533.997	10.46
534.121	8.46
534.244	-1.54
534.367	20.46
534.491	24.46
534.614	16.46
534.737	24.46
534.86	31.46
534.984	-3.54
535.107	19.46
535.23	31.46
535.354	14.46
535.477	8.46
535.6	4.46
535.723	4.46
535.847	8.46
535.97	8.46
536.093	19.46
536.216	16.46
536.34	20.46
536.463	3.46
536.586	32.46
536.709	22.46
536.833	12.46
536.956	10.46
537.079	19.46
537.202	26.46
537.325	8.46
537.449	21.46
537.572	37.46
537.695	15.46
537.818	12.46
537.941	28.46
538.065	16.46
538.188	20.46
538.311	33.46
538.434	30.46
538.558	19.46
538.681	31.46
538.804	37.46
538.927	20.46
539.05	11.46
539.173	27.46
539.297	20.46
539.42	2.46
539.543	33.46
539.666	46.46
539.789	31.46
539.913	10.46
540.036	10.46
540.159	15.46
540.282	9.46
540.405	11.46
540.528	25.46
540.651	15.46
540.775	6.46
540.898	32.46
541.021	25.46
541.144	27.46
541.267	26.46
541.39	22.46
541.513	32.46
541.637	31.46
541.76	28.46
541.883	33.46
542.006	43.46
542.129	41.46
542.252	26.46
542.375	46.46
542.498	42.46
542.622	33.46
542.745	38.46
542.868	36.46
542.991	40.46
543.114	58.46
543.237	63.46
543.36	64.46
543.483	50.46
543.606	66.46
543.73	68.46
543.853	69.46
543.976	86.46
544.099	103.46
544.222	122.46
544.345	121.46
544.468	170.46
544.591	215.46
544.714	264.46
544.837	332.46
544.96	454.46
545.083	661.46
545.206	1082.46
545.329	2472.46
545.453	11043.46
545.576	15265.46
545.699	15681.46
545.822	15681.46
545.945	15681.46
546.068	15681.46
546.191	15681.46
546.314	15681.46
546.437	15681.46
546.56	15681.46
546.683	15681.46
546.806	15681.46
546.929	15681.46
547.052	15681.46
547.175	15681.46
547.298	15681.46
547.421	15681.46
547.544	15681.46
547.667	3533.46
547.79	2644.46
547.913	1058.46
548.036	869.46
548.159	630.46
548.282	620.46
548.405	508.46
548.528	487.46
548.651	392.46
548.774	405.46
548.897	343.46
549.02	370.46
549.143	301.46
549.266	312.46
549.389	277.46
549.512	270.46
549.635	241.46
549.758	254.46
549.881	226.46
550.004	215.46
550.127	197.46
550.25	190.46
550.373	178.46
550.496	180.46
550.619	157.46
550.742	166.46
550.865	144.46
550.988	148.46
551.111	149.46
551.234	140.46
551.356	121.46
551.479	122.46
551.602	124.46
551.725	141.46
551.848	127.46
551.971	148.46
552.094	105.46
552.217	107.46
552.34	125.46
552.463	111.46
552.586	115.46
552.709	83.46
552.832	87.46
552.955	103.46
553.077	98.46
553.2	100.46
553.323	68.46
553.446	89.46
553.569	98.46
553.692	102.46
553.815	84.46
553.938	101.46
554.061	107.46
554.184	96.46
554.306	90.46
554.429	79.46
554.552	77.46
554.675	63.46
554.798	78.46
554.921	96.46
555.044	55.46
555.167	64.46
555.29	80.46
555.412	75.46
555.535	76.46
555.658	64.46
555.781	66.46
555.904	77.46
556.027	70.46
556.15	72.46
556.272	73.46
556.395	71.46
556.518	57.46
556.641	56.46
556.764	75.46
556.887	67.46
557.01	60.46
557.132	50.46
557.255	60.46
557.378	81.46
557.501	56.46
557.624	79.46
557.747	62.46
557.869	76.46
557.992	88.46
558.115	96.46
558.238	95.46
558.361	73.46
558.483	103.46
558.606	81.46
558.729	44.46
558.852	69.46
558.975	75.46
559.098	67.46
559.22	70.46
559.343	48.46
559.466	51.46
559.589	37.46
559.712	45.46
559.834	57.46
559.957	48.46
560.08	40.46
560.203	51.46
560.325	44.46
560.448	58.46
560.571	37.46
560.694	44.46
560.817	63.46
560.939	51.46
561.062	44.46
561.185	63.46
561.308	63.46
561.43	50.46
561.553	55.46
561.676	51.46
561.799	77.46
561.921	62.46
562.044	58.46
562.167	44.46
562.29	80.46
562.413	63.46
562.535	57.46
562.658	46.46
562.781	58.46
562.903	49.46
563.026	89.46
563.149	142.46
563.272	117.46
563.394	110.46
563.517	111.46
563.64	74.46
563.763	55.46
563.885	67.46
564.008	62.46
564.131	48.46
564.254	29.46
564.376	38.46
564.499	39.46
564.622	44.46
564.744	70.46
564.867	41.46
564.99	33.46
565.113	35.46
565.235	20.46
565.358	26.46
565.481	35.46
565.603	32.46
565.726	30.46
565.849	35.46
565.971	44.46
566.094	24.46
566.217	40.46
566.34	44.46
566.462	44.46
566.585	49.46
566.708	44.46
566.83	51.46
566.953	52.46
567.076	31.46
567.198	31.46
567.321	35.46
567.444	46.46
567.566	23.46
567.689	34.46
567.812	39.46
567.934	34.46
568.057	42.46
568.18	18.46
568.302	28.46
568.425	19.46
568.548	24.46
568.67	45.46
568.793	26.46
568.916	24.46
569.038	25.46
569.161	37.46
569.283	36.46
569.406	29.46
569.529	32.46
569.651	27.46
569.774	35.46
569.897	19.46
570.019	24.46
570.142	17.46
570.265	43.46
570.387	26.46
570.51	49.46
570.632	39.46
570.755	22.46
570.878	34.46
571	37.46
571.123	30.46
571.246	57.46
571.368	20.46
571.491	23.46
571.613	21.46
571.736	11.46
571.859	26.46
571.981	29.46
572.104	38.46
572.226	44.46
572.349	21.46
572.472	32.46
572.594	29.46
572.717	29.46
572.839	34.46
572.962	47.46
573.085	25.46
573.207	27.46
573.33	22.46
573.452	41.46
573.575	39.46
573.697	38.46
573.82	21.46
573.943	27.46
574.065	38.46
574.188	37.46
574.31	41.46
574.433	32.46
574.555	63.46
574.678	36.46
574.801	50.46
574.923	34.46
575.046	38.46
575.168	19.46
575.291	32.46
575.413	40.46
575.536	40.46
575.659	46.46
575.781	39.46
575.904	63.46
576.026	86.46
576.149	78.46
576.271	126.46
576.394	200.46
576.516	514.46
576.639	3623.46
576.761	10143.46
576.884	8788.46
577.007	8704.46
577.129	8014.46
577.252	3672.46
577.374	1290.46
577.497	538.46
577.619	271.46
577.742	154.46
577.864	153.46
577.987	123.46
578.109	134.46
578.232	143.46
578.354	147.46
578.477	189.46
578.599	387.46
578.722	1952.46
578.844	9093.46
578.967	9829.46
579.089	8758.46
579.212	9113.46
579.334	5266.46
579.457	1919.46
579.579	732.46
579.702	336.46
579.824	195.46
579.947	123.46
580.069	115.46
580.192	76.46
580.314	78.46
580.437	56.46
580.559	92.46
580.682	72.46
580.804	59.46
580.927	74.46
581.049	89.46
581.172	59.46
581.294	48.46
581.417	52.46
581.539	62.46
581.662	38.46
581.784	45.46
581.907	45.46
582.029	58.46
582.152	26.46
582.274	58.46
582.396	28.46
582.519	34.46
582.641	29.46
582.764	39.46
582.886	40.46
583.009	43.46
583.131	44.46
583.254	40.46
583.376	37.46
583.499	40.46
583.621	27.46
583.743	40.46
583.866	36.46
583.988	18.46
584.111	32.46
584.233	37.46
584.356	50.46
584.478	38.46
584.601	16.46
584.723	32.46
584.845	40.46
584.968	36.46
585.09	12.46
585.213	38.46
585.335	18.46
585.458	44.46
585.58	30.46
585.702	41.46
585.825	51.46
585.947	39.46
586.07	28.46
586.192	17.46
586.315	46.46
586.437	33.46
586.559	38.46
586.682	12.46
586.804	25.46
586.927	28.46
587.049	20.46
587.171	43.46
587.294	27.46
587.416	24.46
587.539	18.46
587.661	12.46
587.783	30.46
587.906	25.46
588.028	26.46
588.151	12.46
588.273	24.46
588.395	18.46
588.518	10.46
588.64	25.46
588.763	39.46
588.885	29.46
589.007	39.46
589.13	24.46
589.252	8.46
589.375	28.46
589.497	21.46
589.619	32.46
589.742	22.46
589.864	35.46
589.986	35.46
590.109	20.46
590.231	4.46
590.354	34.46
590.476	13.46
590.598	15.46
590.721	13.46
590.843	18.46
590.965	22.46
591.088	28.46
591.21	42.46
591.332	32.46
591.455	20.46
591.577	19.46
591.7	42.46
591.822	21.46
591.944	23.46
592.067	29.46
592.189	15.46
592.311	29.46
592.434	11.46
592.556	35.46
592.678	36.46
592.801	28.46
592.923	38.46
593.045	18.46
593.168	20.46
593.29	21.46
593.412	46.46
593.535	23.46
593.657	19.46
593.779	29.46
593.902	34.46
594.024	22.46
594.146	26.46
594.269	26.46
594.391	10.46
594.513	32.46
594.636	10.46
594.758	21.46
594.88	38.46
595.003	31.46
595.125	15.46
595.247	34.46
595.37	54.46
595.492	23.46
595.614	37.46
595.737	12.46
595.859	22.46
595.981	23.46
596.104	23.46
596.226	11.46
596.348	17.46
596.471	19.46
596.593	28.46
596.715	17.46
596.838	24.46
596.96	22.46
597.082	28.46
597.204	28.46
597.327	21.46
597.449	25.46
597.571	27.46
597.694	29.46
597.816	29.46
597.938	12.46
598.061	24.46
598.183	30.46
598.305	31.46
598.427	39.46
598.55	24.46
598.672	36.46
598.794	28.46
598.917	24.46
599.039	11.46
599.161	19.46
599.283	16.46
599.406	25.46
599.528	23.46
599.65	36.46
599.773	28.46
599.895	42.46
600.017	24.46
600.139	12.46
600.262	2.46
600.384	23.46
600.506	30.46
600.628	28.46
600.751	28.46
600.873	12.46
600.995	15.46
601.118	41.46
601.24	23.46
601.362	32.46
601.484	35.46
601.607	26.46
601.729	22.46
601.851	18.46
601.973	19.46
602.096	38.46
602.218	27.46
602.34	23.46
602.462	34.46
602.585	38.46
602.707	25.46
602.829	23.46
602.951	11.46
603.074	16.46
603.196	26.46
603.318	7.46
603.44	31.46
603.563	-0.54
603.685	8.46
603.807	31.46
603.929	24.46
604.052	24.46
604.174	30.46
604.296	26.46
604.418	25.46
604.541	34.46
604.663	12.46
604.785	18.46
604.907	12.46
605.03	0.46
605.152	38.46
605.274	15.46
605.396	19.46
605.519	23.46
605.641	24.46
605.763	23.46
605.885	27.46
606.008	18.46
606.13	35.46
606.252	30.46
606.374	4.46
606.496	13.46
606.619	11.46
606.741	7.46
606.863	20.46
606.985	30.46
607.108	24.46
607.23	23.46
607.352	15.46
607.474	25.46
607.596	30.46
607.719	26.46
607.841	36.46
607.963	22.46
608.085	16.46
608.207	35.46
608.33	23.46
608.452	7.46
608.574	13.46
608.696	41.46
608.819	14.46
608.941	26.46
609.063	6.46
609.185	11.46
609.307	8.46
609.43	40.46
609.552	15.46
609.674	2.46
609.796	16.46
609.918	18.46
610.041	0.46
610.163	20.46
610.285	12.46
610.407	18.46
610.529	27.46
610.652	18.46
610.774	20.46
610.896	35.46
611.018	33.46
611.14	32.46
611.263	12.46
611.385	8.46
611.507	19.46
611.629	19.46
611.751	31.46
611.873	36.46
611.996	40.46
612.118	32.46
612.24	15.46
612.362	36.46
612.484	28.46
612.607	43.46
612.729	34.46
612.851	34.46
612.973	24.46
613.095	10.46
613.218	18.46
613.34	22.46
613.462	23.46
613.584	23.46
613.706	19.46
613.828	43.46
613.951	22.46
614.073	16.46
614.195	-1.54
614.317	23.46
614.439	26.46
614.561	33.46
614.684	27.46
614.806	22.46
614.928	35.46
615.05	29.46
615.172	25.46
615.294	41.46
615.417	14.46
615.539	18.46
615.661	4.46
615.783	22.46
615.905	15.46
616.027	14.46
616.15	38.46
616.272	17.46
616.394	26.46
616.516	15.46
616.638	33.46
616.76	14.46
616.883	4.46
617.005	20.46
617.127	23.46
617.249	34.46
617.371	32.46
617.493	15.46
617.615	15.46
617.738	31.46
617.86	22.46
617.982	27.46
618.104	15.46
618.226	2.46
618.348	9.46
618.471	28.46
618.593	26.46
618.715	8.46
618.837	22.46
618.959	24.46
619.081	24.46
619.203	28.46
619.326	30.46
619.448	13.46
619.57	36.46
619.692	40.46
619.814	13.46
619.936	27.46
620.058	38.46
620.181	19.46
620.303	27.46
620.425	23.46
620.547	6.46
620.669	7.46
620.791	23.46
620.913	23.46
621.036	18.46
621.158	36.46
621.28	19.46
621.402	9.46
621.524	24.46
621.646	15.46
621.768	2.46
621.891	28.46
622.013	12.46
622.135	13.46
622.257	20.46
622.379	14.46
622.501	19.46
622.623	13.46
622.745	22.46
622.868	14.46
622.99	18.46
623.112	4.46
623.234	16.46
623.356	27.46
623.478	16.46
623.6	33.46
623.722	17.46
623.845	46.46
623.967	1.46
624.089	18.46
624.211	22.46
624.333	16.46
624.455	19.46
624.577	24.46
624.699	26.46
624.822	18.46
624.944	28.46
625.066	36.46
625.188	1.46
625.31	6.46
625.432	23.46
625.554	23.46
625.676	44.46
625.799	12.46
625.921	36.46
626.043	30.46
626.165	23.46
626.287	7.46
626.409	19.46
626.531	0.46
626.653	28.46
626.775	23.46
626.898	20.46
627.02	30.46
627.142	47.46
627.264	39.46
627.386	9.46
627.508	30.46
627.63	7.46
627.752	20.46
627.874	11.46
627.997	29.46
628.119	26.46
628.241	28.46
628.363	33.46
628.485	19.46
628.607	10.46
628.729	5.46
628.851	18.46
628.973	18.46
629.096	7.46
629.218	17.46
629.34	22.46
629.462	6.46
629.584	5.46
629.706	12.46
629.828	18.46
629.95	16.46
630.072	11.46
630.195	19.46
630.317	12.46
630.439	9.46
630.561	13.46
630.683	14.46
630.805	20.46
630.927	15.46
631.049	11.46
631.171	3.46
631.293	15.46
631.416	18.46
631.538	-4.54
631.66	8.46
631.782	17.46
631.904	20.46
632.026	18.46
632.148	25.46
632.27	8.46
632.392	6.46
632.514	34.46
632.637	32.46
632.759	22.46
632.881	14.46
633.003	12.46
633.125	10.46
633.247	12.46
633.369	12.46
633.491	8.46
633.613	26.46
633.735	5.46
633.858	23.46
633.98	23.46
634.102	14.46
634.224	19.46
634.346	3.46
634.468	-0.54
634.59	12.46
634.712	3.46
634.834	6.46
634.956	3.46
635.078	7.46
635.201	-6.54
635.323	13.46
635.445	15.46
635.567	-13.54
635.689	11.46
635.811	9.46
635.933	12.46
636.055	24.46
636.177	6.46
636.299	22.46
636.421	6.46
636.544	-14.54
636.666	8.46
636.788	13.46
636.91	28.46
637.032	19.46
637.154	10.46
637.276	22.46
637.398	10.46
637.52	22.46
637.642	18.46
637.764	26.46
637.887	4.46
638.009	13.46
638.131	11.46
638.253	4.46
638.375	-0.54
638.497	21.46
638.619	12.46
638.741	18.46
638.863	-9.54
638.985	0.46
639.107	17.46
639.23	8.46
639.352	24.46
639.474	9.46
639.596	21.46
639.718	6.46
639.84	11.46
639.962	6.46
640.084	22.46
640.206	40.46
640.328	9.46
640.45	16.46
640.573	17.46
640.695	17.46
640.817	4.46
640.939	21.46
641.061	12.46
641.183	12.46
641.305	6.46
641.427	0.46
641.549	4.46
641.671	23.46
641.793	5.46
641.915	12.46
642.038	39.46
642.16	14.46
642.282	17.46
642.404	8.46
642.526	18.46
642.648	9.46
642.77	22.46
642.892	8.46
643.014	21.46
643.136	24.46
643.258	11.46
643.381	13.46
643.503	17.46
643.625	7.46
643.747	-1.54
643.869	9.46
643.991	4.46
644.113	7.46
644.235	14.46
644.357	-2.54
644.479	35.46
644.601	-9.54
644.723	7.46
644.846	14.46
644.968	8.46
645.09	20.46
645.212	6.46
645.334	20.46
645.456	6.46
645.578	11.46
645.7	8.46
645.822	16.46
645.944	13.46
646.066	16.46
646.188	-14.54
646.311	22.46
646.433	-5.54
646.555	45.46
646.677	13.46
646.799	8.46
646.921	15.46
647.043	27.46
647.165	7.46
647.287	18.46
647.409	6.46
647.531	13.46
647.654	7.46
647.776	2.46
647.898	11.46
648.02	11.46
648.142	-8.54
648.264	15.46
648.386	2.46
648.508	5.46
648.63	10.46
648.752	15.46
648.874	12.46
648.997	6.46
649.119	20.46
649.241	22.46
649.363	26.46
649.485	18.46
649.607	11.46
649.729	4.46
649.851	14.46
649.973	2.46
650.095	21.46
650.217	2.46
650.34	5.46
650.462	16.46
650.584	18.46
650.706	15.46
650.828	23.46
650.95	9.46
651.072	24.46
651.194	-4.54
651.316	3.46
651.438	4.46
651.56	-1.54
651.683	3.46
651.805	12.46
651.927	4.46
652.049	4.46
652.171	-15.54
652.293	13.46
652.415	2.46
652.537	5.46
652.659	-15.54
652.781	2.46
652.903	22.46
653.026	3.46
653.148	14.46
653.27	14.46
653.392	12.46
653.514	2.46
653.636	2.46
653.758	4.46
653.88	12.46
654.002	9.46
654.124	-9.54
654.247	-7.54
654.369	12.46
654.491	1.46
654.613	-2.54
654.735	2.46
654.857	13.46
654.979	8.46
655.101	14.46
655.223	39.46
655.345	22.46
655.468	23.46
655.59	10.46
655.712	19.46
655.834	19.46
655.956	44.46
656.078	12.46
656.2	18.46
656.322	3.46
656.444	-18.54
656.566	9.46
656.689	13.46
656.811	10.46
656.933	17.46
657.055	12.46
657.177	10.46
657.299	6.46
657.421	-6.54
657.543	15.46
657.665	6.46
657.787	-1.54
657.91	-17.54
658.032	-3.54
658.154	6.46
658.276	11.46
658.398	-12.54
658.52	11.46
658.642	14.46
658.764	16.46
658.886	-9.54
659.009	-7.54
659.131	18.46
659.253	-0.54
659.375	12.46
659.497	5.46
659.619	20.46
659.741	-5.54
659.863	-6.54
659.985	-15.54
660.108	18.46
660.23	-0.54
660.352	8.46
660.474	11.46
660.596	27.46
660.718	25.46
660.84	3.46
660.962	23.46
661.084	2.46
661.207	14.46
661.329	16.46
661.451	-2.54
661.573	11.46
661.695	38.46
661.817	27.46
661.939	18.46
662.061	20.46
662.184	11.46
662.306	13.46
662.428	23.46
662.55	18.46
662.672	11.46
662.794	13.46
662.916	-4.54
663.038	11.46
663.161	30.46
663.283	18.46
663.405	2.46
663.527	8.46
663.649	20.46
663.771	20.46
663.893	19.46
664.015	21.46
664.138	2.46
664.26	3.46
664.382	9.46
664.504	8.46
664.626	0.46
664.748	7.46
664.87	7.46
664.992	34.46
665.115	18.46
665.237	7.46
665.359	7.46
665.481	20.46
665.603	10.46
665.725	-3.54
665.847	2.46
665.97	-15.54
666.092	5.46
666.214	-2.54
666.336	19.46
666.458	-0.54
666.58	16.46
666.702	12.46
666.825	11.46
666.947	-6.54
667.069	2.46
667.191	4.46
667.313	16.46
667.435	-8.54
667.557	-9.54
667.68	3.46
667.802	3.46
667.924	3.46
668.046	9.46
668.168	13.46
668.29	14.46
668.412	11.46
668.535	3.46
668.657	30.46
668.779	-4.54
668.901	7.46
669.023	24.46
669.145	7.46
669.267	14.46
669.39	22.46
669.512	-0.54
669.634	2.46
669.756	2.46
669.878	5.46
670	12.46
670.123	-1.54
670.245	20.46
670.367	11.46
670.489	26.46
670.611	14.46
670.733	13.46
670.856	-5.54
670.978	14.46
671.1	14.46
671.222	9.46
671.344	-3.54
671.466	-7.54
671.589	-9.54
671.711	-8.54
671.833	6.46
671.955	7.46
672.077	-6.54
672.199	14.46
672.322	35.46
672.444	6.46
672.566	11.46
672.688	19.46
672.81	8.46
672.932	10.46
673.055	-8.54
673.177	-6.54
673.299	2.46
673.421	6.46
673.543	13.46
673.665	20.46
673.788	13.46
673.91	-3.54
674.032	-15.54
674.154	3.46
674.276	9.46
674.399	-9.54
674.521	0.46
674.643	19.46
674.765	-0.54
674.887	7.46
675.009	20.46
675.132	-2.54
675.254	-5.54
675.376	16.46
675.498	10.46
675.62	27.46
675.743	11.46
675.865	15.46
675.987	-4.54
676.109	10.46
676.231	-1.54
676.354	3.46
676.476	-3.54
676.598	22.46
676.72	-3.54
676.842	7.46
676.965	3.46
677.087	12.46
677.209	12.46
677.331	21.46
677.453	20.46
677.576	-8.54
677.698	9.46
677.82	16.46
677.942	-6.54
678.064	5.46
678.187	14.46
678.309	15.46
678.431	8.46
678.553	10.46
678.675	36.46
678.798	35.46
678.92	0.46
679.042	6.46
679.164	6.46
679.286	32.46
679.409	-9.54
679.531	-5.54
679.653	-6.54
679.775	12.46
679.898	-1.54
680.02	3.46
680.142	-6.54
680.264	13.46
680.386	12.46
680.509	14.46
680.631	7.46
680.753	18.46
680.875	20.46
680.998	19.46
681.12	13.46
681.242	13.46
681.364	2.46
681.486	-2.54
681.609	8.46
681.731	-7.54
681.853	1.46
681.975	-13.54
682.098	27.46
682.22	26.46
682.342	0.46
682.464	18.46
682.587	21.46
682.709	6.46
682.831	-0.54
682.953	-8.54
683.076	12.46
683.198	9.46
683.32	24.46
683.442	-0.54
683.565	15.46
683.687	-8.54
683.809	-7.54
683.931	-23.54
684.054	7.46
684.176	14.46
684.298	12.46
684.42	6.46
684.543	-4.54
684.665	-9.54
684.787	-5.54
684.909	11.46
685.032	23.46
685.154	11.46
685.276	14.46
685.398	-11.54
685.521	-8.54
685.643	14.46
685.765	5.46
685.887	-0.54
686.01	8.46
686.132	-1.54
686.254	3.46
686.377	10.46
686.499	2.46
686.621	-1.54
686.743	23.46
686.866	12.46
686.988	41.46
687.11	17.46
687.232	-2.54
687.355	-9.54
687.477	4.46
687.599	12.46
687.722	18.46
687.844	9.46
687.966	0.46
688.088	13.46
688.211	23.46
688.333	7.46
688.455	23.46
688.578	29.46
688.7	5.46
688.822	8.46
688.944	3.46
689.067	43.46
689.189	6.46
689.311	5.46
689.434	7.46
689.556	10.46
689.678	8.46
689.801	4.46
689.923	16.46
690.045	30.46
690.167	27.46
690.29	21.46
690.412	11.46
690.534	2.46
690.657	10.46
690.779	8.46
690.901	6.46
691.024	10.46
691.146	-5.54
691.268	2.46
691.391	27.46
691.513	16.46
691.635	17.46
691.758	11.46
691.88	11.46
692.002	-1.54
692.125	13.46
692.247	-1.54
692.369	9.46
692.492	-0.54
692.614	5.46
692.736	6.46
692.859	4.46
692.981	-7.54
693.103	7.46
693.226	21.46
693.348	27.46
693.47	6.46
693.593	6.46
693.715	40.46
693.837	41.46
693.96	16.46
694.082	20.46
694.204	19.46
694.327	14.46
694.449	-4.54
694.571	2.46
694.694	7.46
694.816	12.46
694.938	4.46
695.061	14.46
695.183	-0.54
695.305	8.46
695.428	14.46
695.55	3.46
695.672	-7.54
695.795	29.46
695.917	4.46
696.04	2.46
696.162	12.46
696.284	-0.54
696.407	8.46
696.529	10.46
696.651	19.46
696.774	14.46
696.896	13.46
697.019	13.46
697.141	13.46
697.263	10.46
697.386	-14.54
697.508	5.46
697.63	15.46
697.753	17.46
697.875	-2.54
697.998	-7.54
698.12	-1.54
698.242	13.46
698.365	4.46
698.487	8.46
698.61	20.46
698.732	3.46
698.854	11.46
698.977	15.46
699.099	16.46
699.221	4.46
699.344	8.46
699.466	15.46
699.589	20.46
699.711	7.46
699.834	6.46
699.956	16.46
700.078	10.46
700.201	8.46
700.323	27.46
700.446	22.46
700.568	-0.54
700.69	8.46
700.813	6.46
700.935	2.46
701.058	-1.54
701.18	-0.54
701.302	10.46
701.425	-2.54
701.547	3.46
701.67	6.46
701.792	10.46
701.915	2.46
702.037	0.46
702.159	8.46
702.282	10.46
702.404	-1.54
702.527	15.46
702.649	12.46
702.772	15.46
702.894	18.46
703.017	1.46
703.139	19.46
703.261	14.46
703.384	22.46
703.506	-9.54
703.629	-0.54
703.751	7.46
703.874	19.46
703.996	9.46
704.119	-2.54
704.241	23.46
704.364	-5.54
704.486	24.46
704.608	7.46
704.731	3.46
704.853	8.46
704.976	1.46
705.098	18.46
705.221	10.46
705.343	13.46
705.466	9.46
705.588	23.46
705.711	21.46
705.833	37.46
705.956	23.46
706.078	10.46
706.201	6.46
706.323	-3.54
706.446	-2.54
