Data from LowRes_H2_15_26_11_07_2024_HR4C61881__42__15-28-17-837.txt Node

Date: Thu Nov 07 15:28:17 EST 2024
User: crc00042
Spectrometer: HR4C6188
Trigger mode: 4
Integration Time (sec): 1.000000E-1
Scans to average: 1
Electric dark correction enabled: true
Nonlinearity correction enabled: false
Boxcar width: 0
XAxis mode: Wavelengths
Number of Pixels in Spectrum: 3648
>>>>>Begin Spectral Data<<<<<
245.66	-117.46
245.797	-117.46
245.934	-117.46
246.071	-86.46
246.208	8.54
246.344	-3.46
246.481	-14.46
246.618	-6.46
246.755	21.54
246.892	11.54
247.029	-7.46
247.165	-11.46
247.302	22.54
247.439	0.54
247.576	11.54
247.713	-19.46
247.849	7.54
247.986	-12.46
248.123	-8.46
248.26	-5.46
248.396	25.54
248.533	7.54
248.67	8.54
248.806	-8.46
248.943	-13.46
249.08	-1.46
249.216	-3.46
249.353	-28.46
249.49	-8.46
249.626	1.54
249.763	-1.46
249.9	-0.46
250.036	-6.46
250.173	-3.46
250.309	6.54
250.446	5.54
250.582	-1.46
250.719	-5.46
250.856	15.54
250.992	8.54
251.129	-4.46
251.265	-10.46
251.402	-8.46
251.538	-26.46
251.675	-8.46
251.811	7.54
251.948	11.54
252.084	3.54
252.221	-29.46
252.357	-14.46
252.493	25.54
252.63	-3.46
252.766	-2.46
252.903	-8.46
253.039	-10.46
253.175	8.54
253.312	12.54
253.448	-8.46
253.585	-16.46
253.721	-13.46
253.857	-12.46
253.994	-3.46
254.13	21.54
254.266	-5.46
254.403	-3.46
254.539	4.54
254.675	8.54
254.811	7.54
254.948	6.54
255.084	-4.46
255.22	-25.46
255.356	-10.46
255.493	16.54
255.629	-5.46
255.765	18.54
255.901	-13.46
256.037	-5.46
256.174	14.54
256.31	-12.46
256.446	15.54
256.582	-9.46
256.718	-5.46
256.854	12.54
256.991	-5.46
257.127	15.54
257.263	-0.46
257.399	-6.46
257.535	-17.46
257.671	-0.46
257.807	-23.46
257.943	-23.46
258.079	-17.46
258.215	-1.46
258.351	15.54
258.487	-8.46
258.623	12.54
258.759	-9.46
258.895	16.54
259.031	-0.46
259.167	-15.46
259.303	24.54
259.439	-10.46
259.575	-3.46
259.711	-1.46
259.847	-9.46
259.983	7.54
260.119	-0.46
260.255	-6.46
260.391	15.54
260.527	12.54
260.663	0.54
260.799	1.54
260.934	-1.46
261.07	5.54
261.206	-14.46
261.342	-17.46
261.478	20.54
261.614	15.54
261.749	18.54
261.885	-4.46
262.021	-4.46
262.157	19.54
262.293	5.54
262.428	2.54
262.564	1.54
262.7	0.54
262.836	-12.46
262.971	17.54
263.107	4.54
263.243	11.54
263.378	-0.46
263.514	-15.46
263.65	-9.46
263.785	-9.46
263.921	-21.46
264.057	1.54
264.192	11.54
264.328	12.54
264.464	-1.46
264.599	-0.46
264.735	10.54
264.871	-0.46
265.006	6.54
265.142	-19.46
265.277	2.54
265.413	2.54
265.548	10.54
265.684	15.54
265.819	-18.46
265.955	-2.46
266.091	-16.46
266.226	-26.46
266.362	4.54
266.497	3.54
266.633	-5.46
266.768	0.54
266.903	18.54
267.039	5.54
267.174	8.54
267.31	4.54
267.445	5.54
267.581	3.54
267.716	14.54
267.851	2.54
267.987	-18.46
268.122	23.54
268.258	-2.46
268.393	7.54
268.528	12.54
268.664	3.54
268.799	-13.46
268.934	-11.46
269.07	-9.46
269.205	-1.46
269.34	20.54
269.476	5.54
269.611	-23.46
269.746	17.54
269.881	-4.46
270.017	17.54
270.152	-2.46
270.287	-5.46
270.422	-5.46
270.558	-7.46
270.693	10.54
270.828	0.54
270.963	-13.46
271.098	-17.46
271.234	6.54
271.369	27.54
271.504	-5.46
271.639	7.54
271.774	3.54
271.909	2.54
272.045	-16.46
272.18	-4.46
272.315	-4.46
272.45	6.54
272.585	-16.46
272.72	9.54
272.855	17.54
272.99	11.54
273.125	-3.46
273.26	-10.46
273.395	3.54
273.53	2.54
273.665	15.54
273.8	1.54
273.935	-0.46
274.07	-21.46
274.205	6.54
274.34	-1.46
274.475	2.54
274.61	19.54
274.745	-12.46
274.88	13.54
275.015	-9.46
275.15	11.54
275.285	3.54
275.42	13.54
275.555	2.54
275.69	-1.46
275.825	-8.46
275.959	-1.46
276.094	3.54
276.229	-6.46
276.364	-13.46
276.499	7.54
276.634	-4.46
276.768	3.54
276.903	13.54
277.038	24.54
277.173	3.54
277.308	-2.46
277.442	-11.46
277.577	0.54
277.712	-14.46
277.847	8.54
277.981	12.54
278.116	-29.46
278.251	-9.46
278.386	15.54
278.52	8.54
278.655	-1.46
278.79	9.54
278.924	-11.46
279.059	10.54
279.194	-9.46
279.328	22.54
279.463	5.54
279.598	40.54
279.732	27.54
279.867	20.54
280.001	1.54
280.136	4.54
280.271	10.54
280.405	2.54
280.54	0.54
280.674	-17.46
280.809	16.54
280.943	-4.46
281.078	3.54
281.213	25.54
281.347	20.54
281.482	10.54
281.616	8.54
281.751	-1.46
281.885	-19.46
282.02	-12.46
282.154	-2.46
282.288	1.54
282.423	-13.46
282.557	-30.46
282.692	9.54
282.826	6.54
282.961	8.54
283.095	-14.46
283.229	-11.46
283.364	-27.46
283.498	-8.46
283.633	-5.46
283.767	-2.46
283.901	10.54
284.036	1.54
284.17	-13.46
284.304	-3.46
284.439	8.54
284.573	-0.46
284.707	21.54
284.842	-15.46
284.976	-16.46
285.11	-14.46
285.244	-8.46
285.379	40.54
285.513	-12.46
285.647	-5.46
285.781	-0.46
285.916	2.54
286.05	-9.46
286.184	14.54
286.318	17.54
286.453	-11.46
286.587	-18.46
286.721	-10.46
286.855	2.54
286.989	-6.46
287.123	-2.46
287.258	-7.46
287.392	-3.46
287.526	24.54
287.66	-2.46
287.794	-7.46
287.928	-16.46
288.062	0.54
288.196	8.54
288.33	14.54
288.464	14.54
288.598	1.54
288.733	1.54
288.867	27.54
289.001	-1.46
289.135	-11.46
289.269	-10.46
289.403	-3.46
289.537	-0.46
289.671	12.54
289.805	2.54
289.939	6.54
290.073	-22.46
290.207	9.54
290.34	-0.46
290.474	2.54
290.608	-12.46
290.742	0.54
290.876	-10.46
291.01	-13.46
291.144	15.54
291.278	22.54
291.412	1.54
291.546	-11.46
291.679	-2.46
291.813	-0.46
291.947	-1.46
292.081	-1.46
292.215	-1.46
292.349	9.54
292.482	16.54
292.616	1.54
292.75	-0.46
292.884	14.54
293.018	7.54
293.151	-6.46
293.285	1.54
293.419	-2.46
293.553	4.54
293.686	-9.46
293.82	14.54
293.954	15.54
294.088	23.54
294.221	18.54
294.355	-11.46
294.489	8.54
294.622	-7.46
294.756	9.54
294.89	5.54
295.023	9.54
295.157	8.54
295.291	-1.46
295.424	4.54
295.558	7.54
295.691	20.54
295.825	9.54
295.959	18.54
296.092	-0.46
296.226	0.54
296.359	1.54
296.493	8.54
296.627	-3.46
296.76	-2.46
296.894	-12.46
297.027	-4.46
297.161	20.54
297.294	3.54
297.428	1.54
297.561	-0.46
297.695	-19.46
297.828	-4.46
297.962	-4.46
298.095	14.54
298.229	8.54
298.362	-12.46
298.495	2.54
298.629	-7.46
298.762	-4.46
298.896	3.54
299.029	-21.46
299.162	6.54
299.296	8.54
299.429	-6.46
299.563	7.54
299.696	16.54
299.829	8.54
299.963	16.54
300.096	29.54
300.229	-1.46
300.363	-0.46
300.496	18.54
300.629	-13.46
300.763	-4.46
300.896	-5.46
301.029	1.54
301.162	-2.46
301.296	-14.46
301.429	-0.46
301.562	-26.46
301.695	14.54
301.829	16.54
301.962	29.54
302.095	11.54
302.228	-12.46
302.362	-3.46
302.495	-12.46
302.628	-7.46
302.761	3.54
302.894	-0.46
303.027	5.54
303.161	-12.46
303.294	-5.46
303.427	6.54
303.56	0.54
303.693	-1.46
303.826	2.54
303.959	-0.46
304.092	7.54
304.225	-2.46
304.359	11.54
304.492	9.54
304.625	1.54
304.758	-9.46
304.891	-14.46
305.024	-5.46
305.157	-10.46
305.29	-23.46
305.423	-10.46
305.556	18.54
305.689	17.54
305.822	-4.46
305.955	3.54
306.088	6.54
306.221	6.54
306.354	-0.46
306.487	-10.46
306.62	-26.46
306.752	-13.46
306.885	2.54
307.018	4.54
307.151	9.54
307.284	12.54
307.417	-5.46
307.55	8.54
307.683	-3.46
307.816	13.54
307.948	8.54
308.081	22.54
308.214	-8.46
308.347	7.54
308.48	-8.46
308.613	-14.46
308.745	12.54
308.878	-16.46
309.011	-16.46
309.144	1.54
309.277	4.54
309.409	-4.46
309.542	-9.46
309.675	26.54
309.808	-3.46
309.94	26.54
310.073	-6.46
310.206	3.54
310.339	22.54
310.471	-11.46
310.604	9.54
310.737	-13.46
310.869	1.54
311.002	0.54
311.135	-7.46
311.267	-14.46
311.4	-4.46
311.533	24.54
311.665	0.54
311.798	5.54
311.93	1.54
312.063	4.54
312.196	1.54
312.328	8.54
312.461	-11.46
312.593	-10.46
312.726	-1.46
312.859	-17.46
312.991	15.54
313.124	-27.46
313.256	-0.46
313.389	12.54
313.521	-10.46
313.654	7.54
313.786	-15.46
313.919	-13.46
314.051	-5.46
314.184	3.54
314.316	9.54
314.449	-1.46
314.581	0.54
314.714	3.54
314.846	15.54
314.978	-7.46
315.111	-12.46
315.243	10.54
315.376	8.54
315.508	24.54
315.641	7.54
315.773	33.54
315.905	-0.46
316.038	8.54
316.17	-0.46
316.302	4.54
316.435	-1.46
316.567	8.54
316.699	30.54
316.832	-13.46
316.964	3.54
317.096	-6.46
317.229	-6.46
317.361	-25.46
317.493	-8.46
317.625	-9.46
317.758	-7.46
317.89	13.54
318.022	-0.46
318.155	-13.46
318.287	-5.46
318.419	-10.46
318.551	15.54
318.683	2.54
318.816	-8.46
318.948	-20.46
319.08	-13.46
319.212	3.54
319.344	0.54
319.477	-17.46
319.609	-7.46
319.741	44.54
319.873	-0.46
320.005	11.54
320.137	-21.46
320.269	-5.46
320.401	0.54
320.534	-5.46
320.666	-8.46
320.798	-24.46
320.93	1.54
321.062	-9.46
321.194	-2.46
321.326	-17.46
321.458	-0.46
321.59	0.54
321.722	2.54
321.854	7.54
321.986	-0.46
322.118	0.54
322.25	-18.46
322.382	-3.46
322.514	3.54
322.646	-15.46
322.778	32.54
322.91	0.54
323.042	7.54
323.174	20.54
323.306	-4.46
323.438	-19.46
323.57	14.54
323.702	12.54
323.834	-3.46
323.966	-4.46
324.097	3.54
324.229	24.54
324.361	18.54
324.493	-10.46
324.625	3.54
324.757	15.54
324.889	-5.46
325.021	6.54
325.152	19.54
325.284	17.54
325.416	-4.46
325.548	8.54
325.68	-8.46
325.811	0.54
325.943	7.54
326.075	-15.46
326.207	-0.46
326.339	17.54
326.47	2.54
326.602	9.54
326.734	13.54
326.866	13.54
326.997	-15.46
327.129	-8.46
327.261	16.54
327.392	-3.46
327.524	8.54
327.656	3.54
327.787	8.54
327.919	17.54
328.051	20.54
328.182	6.54
328.314	2.54
328.446	6.54
328.577	10.54
328.709	9.54
328.841	-5.46
328.972	11.54
329.104	-6.46
329.235	-3.46
329.367	-1.46
329.499	-5.46
329.63	1.54
329.762	-7.46
329.893	19.54
330.025	22.54
330.156	2.54
330.288	10.54
330.419	16.54
330.551	11.54
330.683	2.54
330.814	1.54
330.946	18.54
331.077	7.54
331.208	5.54
331.34	-7.46
331.471	-19.46
331.603	-7.46
331.734	-4.46
331.866	11.54
331.997	3.54
332.129	0.54
332.26	2.54
332.392	21.54
332.523	-3.46
332.654	-2.46
332.786	-1.46
332.917	-9.46
333.048	4.54
333.18	28.54
333.311	-3.46
333.443	-3.46
333.574	-4.46
333.705	5.54
333.837	2.54
333.968	-3.46
334.099	11.54
334.231	27.54
334.362	6.54
334.493	14.54
334.624	13.54
334.756	7.54
334.887	-0.46
335.018	8.54
335.15	-4.46
335.281	-9.46
335.412	8.54
335.543	4.54
335.675	25.54
335.806	19.54
335.937	3.54
336.068	17.54
336.199	24.54
336.331	-0.46
336.462	-11.46
336.593	27.54
336.724	-22.46
336.855	-7.46
336.986	17.54
337.118	7.54
337.249	10.54
337.38	12.54
337.511	0.54
337.642	9.54
337.773	15.54
337.904	13.54
338.035	23.54
338.166	11.54
338.298	-8.46
338.429	-10.46
338.56	-3.46
338.691	24.54
338.822	19.54
338.953	12.54
339.084	22.54
339.215	6.54
339.346	-8.46
339.477	-5.46
339.608	10.54
339.739	-8.46
339.87	-1.46
340.001	-1.46
340.132	3.54
340.263	13.54
340.394	3.54
340.525	4.54
340.656	-6.46
340.787	3.54
340.918	32.54
341.049	4.54
341.179	23.54
341.31	0.54
341.441	-0.46
341.572	28.54
341.703	16.54
341.834	-9.46
341.965	18.54
342.096	-3.46
342.227	17.54
342.357	6.54
342.488	8.54
342.619	2.54
342.75	3.54
342.881	-13.46
343.012	14.54
343.142	9.54
343.273	-11.46
343.404	6.54
343.535	25.54
343.666	9.54
343.796	18.54
343.927	-2.46
344.058	18.54
344.189	-3.46
344.319	5.54
344.45	22.54
344.581	-0.46
344.712	-0.46
344.842	-1.46
344.973	10.54
345.104	11.54
345.234	-9.46
345.365	-23.46
345.496	4.54
345.626	3.54
345.757	23.54
345.888	-11.46
346.018	24.54
346.149	-7.46
346.28	26.54
346.41	-16.46
346.541	19.54
346.672	-10.46
346.802	24.54
346.933	0.54
347.063	-1.46
347.194	-3.46
347.325	8.54
347.455	9.54
347.586	6.54
347.716	-17.46
347.847	-0.46
347.977	25.54
348.108	6.54
348.238	-0.46
348.369	-7.46
348.499	10.54
348.63	1.54
348.76	-3.46
348.891	-11.46
349.021	-1.46
349.152	9.54
349.282	-15.46
349.413	18.54
349.543	20.54
349.674	8.54
349.804	2.54
349.935	-12.46
350.065	-5.46
350.196	-12.46
350.326	0.54
350.456	-14.46
350.587	18.54
350.717	-5.46
350.848	3.54
350.978	15.54
351.108	-12.46
351.239	11.54
351.369	1.54
351.499	-11.46
351.63	16.54
351.76	3.54
351.89	5.54
352.021	15.54
352.151	-0.46
352.281	10.54
352.412	-2.46
352.542	2.54
352.672	-7.46
352.803	-7.46
352.933	4.54
353.063	-4.46
353.193	3.54
353.324	11.54
353.454	11.54
353.584	17.54
353.714	0.54
353.845	1.54
353.975	-3.46
354.105	2.54
354.235	1.54
354.365	5.54
354.496	-8.46
354.626	4.54
354.756	21.54
354.886	-9.46
355.016	-6.46
355.146	4.54
355.277	11.54
355.407	-6.46
355.537	16.54
355.667	10.54
355.797	-3.46
355.927	-19.46
356.057	11.54
356.187	15.54
356.318	-8.46
356.448	18.54
356.578	10.54
356.708	1.54
356.838	0.54
356.968	-7.46
357.098	8.54
357.228	13.54
357.358	2.54
357.488	-5.46
357.618	23.54
357.748	10.54
357.878	-13.46
358.008	-6.46
358.138	-8.46
358.268	0.54
358.398	25.54
358.528	-6.46
358.658	13.54
358.788	-7.46
358.918	5.54
359.048	13.54
359.178	14.54
359.308	18.54
359.438	24.54
359.568	13.54
359.698	8.54
359.827	-6.46
359.957	-7.46
360.087	14.54
360.217	-23.46
360.347	-1.46
360.477	1.54
360.607	-10.46
360.737	12.54
360.866	4.54
360.996	-10.46
361.126	-5.46
361.256	18.54
361.386	26.54
361.516	17.54
361.645	-4.46
361.775	8.54
361.905	-12.46
362.035	-0.46
362.165	0.54
362.294	-0.46
362.424	15.54
362.554	8.54
362.684	-14.46
362.813	0.54
362.943	8.54
363.073	18.54
363.203	13.54
363.332	8.54
363.462	3.54
363.592	5.54
363.721	7.54
363.851	-8.46
363.981	14.54
364.111	-5.46
364.24	-13.46
364.37	15.54
364.5	26.54
364.629	-3.46
364.759	10.54
364.888	-20.46
365.018	-7.46
365.148	4.54
365.277	2.54
365.407	8.54
365.537	6.54
365.666	9.54
365.796	-7.46
365.925	10.54
366.055	20.54
366.184	5.54
366.314	11.54
366.444	9.54
366.573	-1.46
366.703	0.54
366.832	9.54
366.962	6.54
367.091	23.54
367.221	3.54
367.35	-3.46
367.48	19.54
367.609	10.54
367.739	10.54
367.868	-1.46
367.998	6.54
368.127	-0.46
368.257	10.54
368.386	28.54
368.516	4.54
368.645	19.54
368.775	8.54
368.904	12.54
369.033	-8.46
369.163	1.54
369.292	12.54
369.422	20.54
369.551	1.54
369.68	0.54
369.81	9.54
369.939	8.54
370.069	19.54
370.198	1.54
370.327	3.54
370.457	18.54
370.586	15.54
370.715	-0.46
370.845	-0.46
370.974	10.54
371.103	16.54
371.233	11.54
371.362	-7.46
371.491	-17.46
371.621	4.54
371.75	-0.46
371.879	-13.46
372.008	-4.46
372.138	-1.46
372.267	18.54
372.396	1.54
372.525	-7.46
372.655	-14.46
372.784	-7.46
372.913	12.54
373.042	4.54
373.172	26.54
373.301	-8.46
373.43	-6.46
373.559	12.54
373.688	28.54
373.818	32.54
373.947	9.54
374.076	-1.46
374.205	6.54
374.334	-1.46
374.463	-20.46
374.593	4.54
374.722	8.54
374.851	18.54
374.98	7.54
375.109	-0.46
375.238	20.54
375.367	31.54
375.496	-5.46
375.625	6.54
375.755	8.54
375.884	8.54
376.013	10.54
376.142	-9.46
376.271	7.54
376.4	14.54
376.529	2.54
376.658	0.54
376.787	17.54
376.916	7.54
377.045	3.54
377.174	-1.46
377.303	11.54
377.432	41.54
377.561	10.54
377.69	1.54
377.819	13.54
377.948	7.54
378.077	-6.46
378.206	-13.46
378.335	-3.46
378.464	-2.46
378.593	8.54
378.722	-3.46
378.851	-7.46
378.98	12.54
379.108	-15.46
379.237	-10.46
379.366	3.54
379.495	7.54
379.624	9.54
379.753	13.54
379.882	-5.46
380.011	6.54
380.14	2.54
380.268	13.54
380.397	4.54
380.526	40.54
380.655	5.54
380.784	-20.46
380.913	-1.46
381.041	-5.46
381.17	-26.46
381.299	-5.46
381.428	7.54
381.557	-3.46
381.685	0.54
381.814	23.54
381.943	3.54
382.072	3.54
382.2	-6.46
382.329	-6.46
382.458	8.54
382.587	19.54
382.715	18.54
382.844	28.54
382.973	29.54
383.102	-12.46
383.23	4.54
383.359	-8.46
383.488	-8.46
383.616	-10.46
383.745	-19.46
383.874	1.54
384.003	-4.46
384.131	-1.46
384.26	-12.46
384.389	0.54
384.517	-7.46
384.646	-4.46
384.774	7.54
384.903	25.54
385.032	16.54
385.16	-1.46
385.289	-9.46
385.418	-8.46
385.546	-4.46
385.675	10.54
385.803	-10.46
385.932	4.54
386.06	-16.46
386.189	3.54
386.318	-5.46
386.446	-3.46
386.575	16.54
386.703	19.54
386.832	-20.46
386.96	-0.46
387.089	16.54
387.217	23.54
387.346	1.54
387.474	6.54
387.603	-0.46
387.731	3.54
387.86	17.54
387.988	22.54
388.117	42.54
388.245	11.54
388.374	-17.46
388.502	9.54
388.631	6.54
388.759	-8.46
388.888	12.54
389.016	-7.46
389.144	8.54
389.273	21.54
389.401	4.54
389.53	-5.46
389.658	11.54
389.786	6.54
389.915	-7.46
390.043	-22.46
390.172	-5.46
390.3	21.54
390.428	19.54
390.557	-10.46
390.685	18.54
390.813	31.54
390.942	25.54
391.07	-1.46
391.198	-3.46
391.327	0.54
391.455	-9.46
391.583	24.54
391.712	0.54
391.84	22.54
391.968	16.54
392.096	-0.46
392.225	-13.46
392.353	9.54
392.481	-8.46
392.609	-1.46
392.738	-0.46
392.866	20.54
392.994	0.54
393.122	19.54
393.251	-3.46
393.379	-9.46
393.507	-23.46
393.635	-8.46
393.764	12.54
393.892	21.54
394.02	-3.46
394.148	-11.46
394.276	-4.46
394.404	26.54
394.533	7.54
394.661	3.54
394.789	-1.46
394.917	11.54
395.045	3.54
395.173	0.54
395.302	-3.46
395.43	-5.46
395.558	14.54
395.686	19.54
395.814	6.54
395.942	-8.46
396.07	-0.46
396.198	11.54
396.326	18.54
396.454	22.54
396.582	18.54
396.711	10.54
396.839	9.54
396.967	5.54
397.095	8.54
397.223	13.54
397.351	23.54
397.479	14.54
397.607	-11.46
397.735	14.54
397.863	1.54
397.991	8.54
398.119	-4.46
398.247	0.54
398.375	-4.46
398.503	14.54
398.631	8.54
398.759	-10.46
398.887	6.54
399.015	5.54
399.143	-3.46
399.271	-2.46
399.399	12.54
399.526	10.54
399.654	11.54
399.782	-2.46
399.91	15.54
400.038	42.54
400.166	2.54
400.294	-1.46
400.422	-13.46
400.55	9.54
400.678	10.54
400.805	6.54
400.933	2.54
401.061	2.54
401.189	-3.46
401.317	20.54
401.445	12.54
401.573	21.54
401.7	-7.46
401.828	-9.46
401.956	-3.46
402.084	15.54
402.212	14.54
402.34	18.54
402.467	13.54
402.595	3.54
402.723	-13.46
402.851	23.54
402.978	5.54
403.106	15.54
403.234	5.54
403.362	26.54
403.489	19.54
403.617	12.54
403.745	-2.46
403.873	-4.46
404	28.54
404.128	4.54
404.256	7.54
404.384	29.54
404.511	27.54
404.639	18.54
404.767	-16.46
404.894	-1.46
405.022	11.54
405.15	31.54
405.277	-2.46
405.405	3.54
405.533	4.54
405.66	-8.46
405.788	-3.46
405.916	-17.46
406.043	-7.46
406.171	8.54
406.299	21.54
406.426	26.54
406.554	10.54
406.681	15.54
406.809	16.54
406.937	8.54
407.064	6.54
407.192	0.54
407.319	-0.46
407.447	8.54
407.574	41.54
407.702	19.54
407.83	-8.46
407.957	-14.46
408.085	10.54
408.212	0.54
408.34	8.54
408.467	-7.46
408.595	10.54
408.722	10.54
408.85	3.54
408.977	11.54
409.105	12.54
409.232	5.54
409.36	-10.46
409.487	6.54
409.615	-0.46
409.742	31.54
409.87	36.54
409.997	29.54
410.125	23.54
410.252	56.54
410.379	47.54
410.507	34.54
410.634	24.54
410.762	6.54
410.889	20.54
411.017	5.54
411.144	15.54
411.271	7.54
411.399	29.54
411.526	12.54
411.653	23.54
411.781	19.54
411.908	23.54
412.036	15.54
412.163	34.54
412.29	34.54
412.418	28.54
412.545	24.54
412.672	-2.46
412.8	30.54
412.927	16.54
413.054	26.54
413.182	-10.46
413.309	7.54
413.436	-8.46
413.564	-7.46
413.691	-5.46
413.818	19.54
413.945	-20.46
414.073	-6.46
414.2	13.54
414.327	2.54
414.454	10.54
414.582	6.54
414.709	-11.46
414.836	11.54
414.963	15.54
415.091	12.54
415.218	4.54
415.345	-4.46
415.472	-0.46
415.6	0.54
415.727	11.54
415.854	5.54
415.981	8.54
416.108	9.54
416.236	10.54
416.363	20.54
416.49	-0.46
416.617	1.54
416.744	31.54
416.871	15.54
416.998	17.54
417.126	20.54
417.253	19.54
417.38	-6.46
417.507	-5.46
417.634	11.54
417.761	23.54
417.888	16.54
418.015	18.54
418.143	3.54
418.27	10.54
418.397	10.54
418.524	16.54
418.651	-6.46
418.778	6.54
418.905	12.54
419.032	16.54
419.159	16.54
419.286	37.54
419.413	35.54
419.54	23.54
419.667	-2.46
419.794	-5.46
419.921	4.54
420.048	21.54
420.175	16.54
420.302	-4.46
420.429	8.54
420.556	-0.46
420.683	-17.46
420.81	-6.46
420.937	12.54
421.064	8.54
421.191	11.54
421.318	34.54
421.445	40.54
421.572	-6.46
421.699	20.54
421.826	14.54
421.953	9.54
422.08	-4.46
422.207	-1.46
422.334	3.54
422.461	29.54
422.588	15.54
422.714	27.54
422.841	33.54
422.968	4.54
423.095	9.54
423.222	18.54
423.349	-0.46
423.476	15.54
423.603	-1.46
423.729	14.54
423.856	-2.46
423.983	36.54
424.11	-7.46
424.237	15.54
424.364	29.54
424.491	-2.46
424.617	-26.46
424.744	-14.46
424.871	1.54
424.998	11.54
425.125	-7.46
425.251	8.54
425.378	7.54
425.505	-0.46
425.632	0.54
425.758	-16.46
425.885	15.54
426.012	24.54
426.139	11.54
426.266	-4.46
426.392	13.54
426.519	15.54
426.646	14.54
426.772	45.54
426.899	3.54
427.026	8.54
427.153	12.54
427.279	25.54
427.406	1.54
427.533	-10.46
427.659	-17.46
427.786	1.54
427.913	16.54
428.039	7.54
428.166	9.54
428.293	1.54
428.419	23.54
428.546	14.54
428.673	-6.46
428.799	-3.46
428.926	6.54
429.053	28.54
429.179	12.54
429.306	7.54
429.433	16.54
429.559	10.54
429.686	-11.46
429.812	10.54
429.939	-3.46
430.066	-13.46
430.192	-10.46
430.319	7.54
430.445	7.54
430.572	-3.46
430.699	-3.46
430.825	-21.46
430.952	1.54
431.078	14.54
431.205	21.54
431.331	-14.46
431.458	16.54
431.584	18.54
431.711	23.54
431.837	20.54
431.964	7.54
432.09	1.54
432.217	-11.46
432.343	5.54
432.47	24.54
432.596	13.54
432.723	-5.46
432.849	-18.46
432.976	14.54
433.102	1.54
433.229	9.54
433.355	27.54
433.482	58.54
433.608	161.54
433.735	137.54
433.861	119.54
433.987	143.54
434.114	218.54
434.24	206.54
434.367	72.54
434.493	6.54
434.62	26.54
434.746	43.54
434.872	12.54
434.999	11.54
435.125	-2.46
435.252	7.54
435.378	-4.46
435.504	5.54
435.631	12.54
435.757	6.54
435.883	6.54
436.01	13.54
436.136	9.54
436.262	18.54
436.389	11.54
436.515	14.54
436.641	15.54
436.768	1.54
436.894	12.54
437.02	3.54
437.147	15.54
437.273	11.54
437.399	-15.46
437.526	31.54
437.652	12.54
437.778	11.54
437.904	-8.46
438.031	-2.46
438.157	18.54
438.283	8.54
438.409	-5.46
438.536	6.54
438.662	-4.46
438.788	21.54
438.914	12.54
439.041	22.54
439.167	46.54
439.293	15.54
439.419	2.54
439.546	20.54
439.672	14.54
439.798	11.54
439.924	24.54
440.05	14.54
440.177	11.54
440.303	-19.46
440.429	-1.46
440.555	11.54
440.681	18.54
440.807	10.54
440.934	13.54
441.06	13.54
441.186	0.54
441.312	6.54
441.438	8.54
441.564	7.54
441.69	27.54
441.816	3.54
441.943	-11.46
442.069	5.54
442.195	4.54
442.321	4.54
442.447	-14.46
442.573	-6.46
442.699	8.54
442.825	-7.46
442.951	11.54
443.077	18.54
443.203	39.54
443.33	15.54
443.456	2.54
443.582	20.54
443.708	21.54
443.834	52.54
443.96	22.54
444.086	1.54
444.212	6.54
444.338	10.54
444.464	33.54
444.59	17.54
444.716	10.54
444.842	31.54
444.968	3.54
445.094	7.54
445.22	11.54
445.346	-8.46
445.472	10.54
445.598	3.54
445.724	12.54
445.85	10.54
445.976	6.54
446.102	19.54
446.228	26.54
446.354	4.54
446.48	0.54
446.605	-12.46
446.731	21.54
446.857	12.54
446.983	-5.46
447.109	7.54
447.235	22.54
447.361	10.54
447.487	14.54
447.613	4.54
447.739	-8.46
447.865	7.54
447.99	34.54
448.116	24.54
448.242	21.54
448.368	-3.46
448.494	21.54
448.62	10.54
448.746	4.54
448.872	10.54
448.997	3.54
449.123	16.54
449.249	33.54
449.375	20.54
449.501	6.54
449.627	-22.46
449.752	18.54
449.878	-5.46
450.004	-3.46
450.13	3.54
450.256	-9.46
450.381	-4.46
450.507	9.54
450.633	12.54
450.759	26.54
450.884	19.54
451.01	24.54
451.136	-9.46
451.262	21.54
451.388	16.54
451.513	-5.46
451.639	2.54
451.765	20.54
451.89	16.54
452.016	14.54
452.142	-0.46
452.268	14.54
452.393	10.54
452.519	5.54
452.645	16.54
452.771	1.54
452.896	-6.46
453.022	-16.46
453.148	20.54
453.273	6.54
453.399	4.54
453.525	-16.46
453.65	-0.46
453.776	20.54
453.902	22.54
454.027	17.54
454.153	20.54
454.279	22.54
454.404	1.54
454.53	20.54
454.656	53.54
454.781	14.54
454.907	-7.46
455.032	-4.46
455.158	29.54
455.284	6.54
455.409	2.54
455.535	19.54
455.66	16.54
455.786	13.54
455.912	16.54
456.037	-13.46
456.163	24.54
456.288	19.54
456.414	-14.46
456.539	-7.46
456.665	22.54
456.791	5.54
456.916	-0.46
457.042	16.54
457.167	-11.46
457.293	7.54
457.418	6.54
457.544	-2.46
457.669	-11.46
457.795	1.54
457.92	-9.46
458.046	2.54
458.171	11.54
458.297	6.54
458.422	4.54
458.548	6.54
458.673	27.54
458.799	-1.46
458.924	-6.46
459.05	10.54
459.175	11.54
459.301	2.54
459.426	6.54
459.552	-7.46
459.677	-9.46
459.803	14.54
459.928	19.54
460.053	5.54
460.179	14.54
460.304	27.54
460.43	-14.46
460.555	9.54
460.681	14.54
460.806	18.54
460.931	15.54
461.057	26.54
461.182	3.54
461.308	23.54
461.433	16.54
461.558	-1.46
461.684	20.54
461.809	8.54
461.934	8.54
462.06	31.54
462.185	-2.46
462.311	-2.46
462.436	14.54
462.561	16.54
462.687	9.54
462.812	2.54
462.937	3.54
463.063	14.54
463.188	7.54
463.313	17.54
463.439	3.54
463.564	3.54
463.689	13.54
463.814	25.54
463.94	17.54
464.065	10.54
464.19	24.54
464.316	4.54
464.441	-1.46
464.566	-8.46
464.692	9.54
464.817	20.54
464.942	-0.46
465.067	3.54
465.193	-4.46
465.318	9.54
465.443	2.54
465.568	9.54
465.694	11.54
465.819	33.54
465.944	1.54
466.069	2.54
466.194	2.54
466.32	17.54
466.445	13.54
466.57	5.54
466.695	-4.46
466.82	10.54
466.946	21.54
467.071	4.54
467.196	-16.46
467.321	7.54
467.446	12.54
467.572	9.54
467.697	-6.46
467.822	-0.46
467.947	10.54
468.072	-10.46
468.197	-5.46
468.323	-5.46
468.448	-11.46
468.573	13.54
468.698	12.54
468.823	13.54
468.948	8.54
469.073	-3.46
469.198	26.54
469.324	34.54
469.449	4.54
469.574	12.54
469.699	18.54
469.824	6.54
469.949	10.54
470.074	4.54
470.199	45.54
470.324	23.54
470.449	8.54
470.574	13.54
470.7	12.54
470.825	17.54
470.95	29.54
471.075	5.54
471.2	24.54
471.325	30.54
471.45	20.54
471.575	-0.46
471.7	-8.46
471.825	2.54
471.95	6.54
472.075	11.54
472.2	-5.46
472.325	-8.46
472.45	5.54
472.575	14.54
472.7	14.54
472.825	-6.46
472.95	9.54
473.075	27.54
473.2	2.54
473.325	-1.46
473.45	-4.46
473.575	-5.46
473.7	12.54
473.825	10.54
473.95	28.54
474.075	46.54
474.2	16.54
474.325	15.54
474.45	38.54
474.574	21.54
474.699	14.54
474.824	40.54
474.949	9.54
475.074	-1.46
475.199	19.54
475.324	18.54
475.449	-4.46
475.574	32.54
475.699	17.54
475.824	10.54
475.949	23.54
476.073	-5.46
476.198	10.54
476.323	25.54
476.448	7.54
476.573	-4.46
476.698	11.54
476.823	4.54
476.947	14.54
477.072	31.54
477.197	18.54
477.322	20.54
477.447	10.54
477.572	7.54
477.697	4.54
477.821	12.54
477.946	15.54
478.071	18.54
478.196	18.54
478.321	24.54
478.445	10.54
478.57	4.54
478.695	7.54
478.82	27.54
478.945	11.54
479.069	8.54
479.194	17.54
479.319	19.54
479.444	14.54
479.569	4.54
479.693	16.54
479.818	-0.46
479.943	38.54
480.068	28.54
480.192	16.54
480.317	31.54
480.442	8.54
480.567	13.54
480.691	13.54
480.816	16.54
480.941	5.54
481.066	23.54
481.19	26.54
481.315	14.54
481.44	8.54
481.564	4.54
481.689	28.54
481.814	16.54
481.938	24.54
482.063	12.54
482.188	2.54
482.313	16.54
482.437	16.54
482.562	18.54
482.687	16.54
482.811	25.54
482.936	19.54
483.061	15.54
483.185	25.54
483.31	23.54
483.435	29.54
483.559	26.54
483.684	24.54
483.808	33.54
483.933	-1.46
484.058	2.54
484.182	16.54
484.307	28.54
484.432	12.54
484.556	22.54
484.681	5.54
484.805	31.54
484.93	23.54
485.055	51.54
485.179	79.54
485.304	112.54
485.428	358.54
485.553	1226.54
485.678	1747.54
485.802	1626.54
485.927	1823.54
486.051	2664.54
486.176	1630.54
486.3	445.54
486.425	167.54
486.549	90.54
486.674	50.54
486.799	35.54
486.923	31.54
487.048	21.54
487.172	8.54
487.297	26.54
487.421	39.54
487.546	20.54
487.67	19.54
487.795	-5.46
487.919	14.54
488.044	22.54
488.168	20.54
488.293	9.54
488.417	16.54
488.542	41.54
488.666	22.54
488.791	21.54
488.915	18.54
489.04	13.54
489.164	15.54
489.289	25.54
489.413	2.54
489.538	16.54
489.662	27.54
489.786	6.54
489.911	23.54
490.035	20.54
490.16	3.54
490.284	5.54
490.409	-2.46
490.533	23.54
490.658	27.54
490.782	10.54
490.906	6.54
491.031	33.54
491.155	32.54
491.28	25.54
491.404	5.54
491.528	12.54
491.653	6.54
491.777	11.54
491.902	3.54
492.026	27.54
492.15	12.54
492.275	19.54
492.399	7.54
492.524	-2.46
492.648	32.54
492.772	25.54
492.897	26.54
493.021	1.54
493.145	26.54
493.27	22.54
493.394	10.54
493.518	-1.46
493.643	-1.46
493.767	5.54
493.891	8.54
494.016	19.54
494.14	9.54
494.264	8.54
494.389	0.54
494.513	6.54
494.637	12.54
494.762	8.54
494.886	11.54
495.01	23.54
495.134	15.54
495.259	21.54
495.383	11.54
495.507	25.54
495.632	31.54
495.756	42.54
495.88	11.54
496.004	-4.46
496.129	3.54
496.253	21.54
496.377	4.54
496.501	12.54
496.626	-1.46
496.75	13.54
496.874	12.54
496.998	-0.46
497.123	16.54
497.247	21.54
497.371	10.54
497.495	6.54
497.62	26.54
497.744	0.54
497.868	10.54
497.992	7.54
498.116	8.54
498.241	12.54
498.365	17.54
498.489	0.54
498.613	35.54
498.737	9.54
498.862	7.54
498.986	-3.46
499.11	23.54
499.234	-3.46
499.358	-0.46
499.482	-5.46
499.607	18.54
499.731	23.54
499.855	41.54
499.979	14.54
500.103	5.54
500.227	31.54
500.351	17.54
500.476	10.54
500.6	3.54
500.724	20.54
500.848	15.54
500.972	25.54
501.096	15.54
501.22	15.54
501.344	14.54
501.469	10.54
501.593	6.54
501.717	4.54
501.841	11.54
501.965	16.54
502.089	1.54
502.213	13.54
502.337	11.54
502.461	16.54
502.585	13.54
502.709	16.54
502.834	0.54
502.958	8.54
503.082	18.54
503.206	19.54
503.33	28.54
503.454	32.54
503.578	32.54
503.702	23.54
503.826	16.54
503.95	19.54
504.074	-21.46
504.198	8.54
504.322	4.54
504.446	14.54
504.57	-0.46
504.694	15.54
504.818	19.54
504.942	26.54
505.066	0.54
505.19	2.54
505.314	3.54
505.438	-4.46
505.562	11.54
505.686	20.54
505.81	-1.46
505.934	11.54
506.058	7.54
506.182	27.54
506.306	16.54
506.43	8.54
506.554	7.54
506.678	-8.46
506.802	-4.46
506.926	0.54
507.05	4.54
507.174	-1.46
507.298	9.54
507.422	26.54
507.546	14.54
507.67	37.54
507.794	-14.46
507.918	8.54
508.042	11.54
508.165	13.54
508.289	11.54
508.413	-5.46
508.537	10.54
508.661	13.54
508.785	16.54
508.909	3.54
509.033	1.54
509.157	5.54
509.281	13.54
509.405	14.54
509.528	26.54
509.652	48.54
509.776	8.54
509.9	30.54
510.024	15.54
510.148	7.54
510.272	12.54
510.396	17.54
510.519	5.54
510.643	20.54
510.767	8.54
510.891	3.54
511.015	8.54
511.139	22.54
511.263	27.54
511.386	8.54
511.51	22.54
511.634	16.54
511.758	5.54
511.882	-6.46
512.006	22.54
512.129	1.54
512.253	41.54
512.377	13.54
512.501	9.54
512.625	13.54
512.748	10.54
512.872	0.54
512.996	0.54
513.12	2.54
513.244	1.54
513.367	31.54
513.491	28.54
513.615	-1.46
513.739	-13.46
513.862	24.54
513.986	9.54
514.11	17.54
514.234	7.54
514.358	24.54
514.481	12.54
514.605	4.54
514.729	12.54
514.853	29.54
514.976	-1.46
515.1	7.54
515.224	25.54
515.348	17.54
515.471	1.54
515.595	4.54
515.719	5.54
515.842	34.54
515.966	13.54
516.09	20.54
516.214	9.54
516.337	38.54
516.461	24.54
516.585	19.54
516.708	24.54
516.832	19.54
516.956	26.54
517.08	11.54
517.203	2.54
517.327	12.54
517.451	41.54
517.574	37.54
517.698	6.54
517.822	25.54
517.945	25.54
518.069	26.54
518.193	37.54
518.316	32.54
518.44	30.54
518.564	32.54
518.687	21.54
518.811	38.54
518.935	36.54
519.058	28.54
519.182	36.54
519.306	36.54
519.429	31.54
519.553	54.54
519.676	16.54
519.8	21.54
519.924	13.54
520.047	20.54
520.171	15.54
520.294	4.54
520.418	23.54
520.542	-8.46
520.665	27.54
520.789	7.54
520.913	6.54
521.036	-5.46
521.16	4.54
521.283	9.54
521.407	22.54
521.53	-13.46
521.654	-12.46
521.778	25.54
521.901	-3.46
522.025	4.54
522.148	10.54
522.272	14.54
522.395	11.54
522.519	10.54
522.643	10.54
522.766	11.54
522.89	18.54
523.013	32.54
523.137	13.54
523.26	23.54
523.384	15.54
523.507	24.54
523.631	1.54
523.754	4.54
523.878	6.54
524.002	-4.46
524.125	7.54
524.249	-14.46
524.372	7.54
524.496	21.54
524.619	24.54
524.743	8.54
524.866	9.54
524.99	9.54
525.113	-0.46
525.237	33.54
525.36	26.54
525.484	15.54
525.607	11.54
525.731	-17.46
525.854	-1.46
525.978	18.54
526.101	16.54
526.224	13.54
526.348	22.54
526.471	4.54
526.595	11.54
526.718	7.54
526.842	5.54
526.965	30.54
527.089	14.54
527.212	20.54
527.336	7.54
527.459	7.54
527.582	10.54
527.706	35.54
527.829	0.54
527.953	20.54
528.076	5.54
528.2	10.54
528.323	17.54
528.446	25.54
528.57	23.54
528.693	29.54
528.817	-14.46
528.94	14.54
529.064	35.54
529.187	10.54
529.31	11.54
529.434	19.54
529.557	11.54
529.68	28.54
529.804	-4.46
529.927	7.54
530.051	-12.46
530.174	7.54
530.297	5.54
530.421	21.54
530.544	5.54
530.668	6.54
530.791	-6.46
530.914	10.54
531.038	-10.46
531.161	-2.46
531.284	4.54
531.408	20.54
531.531	1.54
531.654	-2.46
531.778	18.54
531.901	4.54
532.024	9.54
532.148	-3.46
532.271	7.54
532.394	-0.46
532.518	39.54
532.641	17.54
532.764	22.54
532.888	6.54
533.011	-9.46
533.134	9.54
533.258	22.54
533.381	0.54
533.504	4.54
533.628	-2.46
533.751	9.54
533.874	-1.46
533.997	-5.46
534.121	-0.46
534.244	18.54
534.367	20.54
534.491	18.54
534.614	24.54
534.737	34.54
534.86	12.54
534.984	8.54
535.107	10.54
535.23	-2.46
535.354	21.54
535.477	7.54
535.6	-3.46
535.723	4.54
535.847	5.54
535.97	4.54
536.093	8.54
536.216	3.54
536.34	12.54
536.463	5.54
536.586	17.54
536.709	19.54
536.833	14.54
536.956	7.54
537.079	-13.46
537.202	13.54
537.325	19.54
537.449	9.54
537.572	37.54
537.695	11.54
537.818	-5.46
537.941	12.54
538.065	4.54
538.188	2.54
538.311	14.54
538.434	17.54
538.558	11.54
538.681	7.54
538.804	11.54
538.927	12.54
539.05	9.54
539.173	2.54
539.297	-0.46
539.42	18.54
539.543	8.54
539.666	38.54
539.789	30.54
539.913	22.54
540.036	9.54
540.159	-6.46
540.282	3.54
540.405	-15.46
540.528	-5.46
540.651	12.54
540.775	-9.46
540.898	-1.46
541.021	10.54
541.144	20.54
541.267	8.54
541.39	-3.46
541.513	8.54
541.637	-4.46
541.76	-13.46
541.883	-4.46
542.006	4.54
542.129	16.54
542.252	3.54
542.375	5.54
542.498	-1.46
542.622	39.54
542.745	16.54
542.868	4.54
542.991	31.54
543.114	16.54
543.237	28.54
543.36	33.54
543.483	36.54
543.606	22.54
543.73	12.54
543.853	14.54
543.976	9.54
544.099	7.54
544.222	-1.46
544.345	8.54
544.468	15.54
544.591	8.54
544.714	19.54
544.837	48.54
544.96	18.54
545.083	15.54
545.206	2.54
545.329	7.54
545.453	16.54
545.576	2.54
545.699	9.54
545.822	0.54
545.945	11.54
546.068	4.54
546.191	-3.46
546.314	11.54
546.437	17.54
546.56	26.54
546.683	0.54
546.806	21.54
546.929	17.54
547.052	9.54
547.175	14.54
547.298	12.54
547.421	2.54
547.544	-2.46
547.667	11.54
547.79	3.54
547.913	4.54
548.036	-5.46
548.159	11.54
548.282	14.54
548.405	-5.46
548.528	12.54
548.651	-3.46
548.774	8.54
548.897	21.54
549.02	47.54
549.143	39.54
549.266	0.54
549.389	25.54
549.512	6.54
549.635	14.54
549.758	7.54
549.881	2.54
550.004	6.54
550.127	12.54
550.25	13.54
550.373	7.54
550.496	27.54
550.619	25.54
550.742	9.54
550.865	-3.46
550.988	6.54
551.111	18.54
551.234	8.54
551.356	11.54
551.479	8.54
551.602	-0.46
551.725	-0.46
551.848	30.54
551.971	30.54
552.094	6.54
552.217	7.54
552.34	10.54
552.463	-5.46
552.586	5.54
552.709	-4.46
552.832	0.54
552.955	18.54
553.077	15.54
553.2	15.54
553.323	-3.46
553.446	14.54
553.569	-4.46
553.692	13.54
553.815	3.54
553.938	22.54
554.061	11.54
554.184	-0.46
554.306	13.54
554.429	5.54
554.552	8.54
554.675	-9.46
554.798	-6.46
554.921	5.54
555.044	-2.46
555.167	6.54
555.29	3.54
555.412	12.54
555.535	9.54
555.658	7.54
555.781	13.54
555.904	16.54
556.027	13.54
556.15	4.54
556.272	1.54
556.395	17.54
556.518	5.54
556.641	4.54
556.764	13.54
556.887	11.54
557.01	11.54
557.132	-2.46
557.255	22.54
557.378	13.54
557.501	8.54
557.624	6.54
557.747	2.54
557.869	3.54
557.992	18.54
558.115	12.54
558.238	6.54
558.361	11.54
558.483	7.54
558.606	13.54
558.729	6.54
558.852	38.54
558.975	24.54
559.098	5.54
559.22	16.54
559.343	11.54
559.466	10.54
559.589	3.54
559.712	12.54
559.834	15.54
559.957	15.54
560.08	13.54
560.203	11.54
560.325	20.54
560.448	27.54
560.571	8.54
560.694	5.54
560.817	13.54
560.939	8.54
561.062	1.54
561.185	4.54
561.308	2.54
561.43	-3.46
561.553	-8.46
561.676	5.54
561.799	17.54
561.921	3.54
562.044	2.54
562.167	11.54
562.29	25.54
562.413	2.54
562.535	19.54
562.658	6.54
562.781	-3.46
562.903	5.54
563.026	5.54
563.149	27.54
563.272	11.54
563.394	20.54
563.517	12.54
563.64	-11.46
563.763	8.54
563.885	24.54
564.008	24.54
564.131	6.54
564.254	-0.46
564.376	-1.46
564.499	-5.46
564.622	0.54
564.744	20.54
564.867	5.54
564.99	-1.46
565.113	4.54
565.235	1.54
565.358	4.54
565.481	-0.46
565.603	1.54
565.726	-20.46
565.849	14.54
565.971	18.54
566.094	0.54
566.217	16.54
566.34	6.54
566.462	8.54
566.585	8.54
566.708	17.54
566.83	4.54
566.953	9.54
567.076	6.54
567.198	8.54
567.321	-20.46
567.444	5.54
567.566	-6.46
567.689	0.54
567.812	6.54
567.934	14.54
568.057	14.54
568.18	5.54
568.302	8.54
568.425	-1.46
568.548	3.54
568.67	26.54
568.793	6.54
568.916	12.54
569.038	3.54
569.161	-4.46
569.283	10.54
569.406	21.54
569.529	13.54
569.651	4.54
569.774	-13.46
569.897	-10.46
570.019	30.54
570.142	26.54
570.265	17.54
570.387	1.54
570.51	19.54
570.632	7.54
570.755	-4.46
570.878	2.54
571	18.54
571.123	-1.46
571.246	15.54
571.368	8.54
571.491	-6.46
571.613	-3.46
571.736	-8.46
571.859	7.54
571.981	0.54
572.104	-6.46
572.226	10.54
572.349	-3.46
572.472	13.54
572.594	20.54
572.717	3.54
572.839	6.54
572.962	12.54
573.085	20.54
573.207	15.54
573.33	26.54
573.452	11.54
573.575	28.54
573.697	14.54
573.82	4.54
573.943	7.54
574.065	17.54
574.188	7.54
574.31	20.54
574.433	15.54
574.555	21.54
574.678	18.54
574.801	1.54
574.923	-8.46
575.046	3.54
575.168	7.54
575.291	-3.46
575.413	24.54
575.536	-4.46
575.659	12.54
575.781	-1.46
575.904	-1.46
576.026	14.54
576.149	12.54
576.271	17.54
576.394	9.54
576.516	-0.46
576.639	11.54
576.761	4.54
576.884	-3.46
577.007	17.54
577.129	7.54
577.252	12.54
577.374	25.54
577.497	-1.46
577.619	13.54
577.742	-8.46
577.864	14.54
577.987	22.54
578.109	19.54
578.232	8.54
578.354	13.54
578.477	10.54
578.599	3.54
578.722	0.54
578.844	7.54
578.967	28.54
579.089	1.54
579.212	-5.46
579.334	7.54
579.457	2.54
579.579	8.54
579.702	-13.46
579.824	15.54
579.947	3.54
580.069	17.54
580.192	-0.46
580.314	9.54
580.437	4.54
580.559	41.54
580.682	5.54
580.804	11.54
580.927	12.54
581.049	24.54
581.172	25.54
581.294	22.54
581.417	27.54
581.539	31.54
581.662	23.54
581.784	9.54
581.907	6.54
582.029	17.54
582.152	3.54
582.274	15.54
582.396	24.54
582.519	18.54
582.641	-2.46
582.764	6.54
582.886	20.54
583.009	-1.46
583.131	7.54
583.254	14.54
583.376	20.54
583.499	9.54
583.621	12.54
583.743	34.54
583.866	14.54
583.988	8.54
584.111	13.54
584.233	16.54
584.356	19.54
584.478	20.54
584.601	-13.46
584.723	-9.46
584.845	22.54
584.968	3.54
585.09	-9.46
585.213	19.54
585.335	6.54
585.458	18.54
585.58	14.54
585.702	28.54
585.825	13.54
585.947	-9.46
586.07	-20.46
586.192	-0.46
586.315	15.54
586.437	-6.46
586.559	-2.46
586.682	6.54
586.804	27.54
586.927	14.54
587.049	-8.46
587.171	26.54
587.294	10.54
587.416	31.54
587.539	4.54
587.661	4.54
587.783	4.54
587.906	8.54
588.028	23.54
588.151	8.54
588.273	29.54
588.395	-0.46
588.518	-5.46
588.64	8.54
588.763	25.54
588.885	28.54
589.007	40.54
589.13	0.54
589.252	3.54
589.375	8.54
589.497	3.54
589.619	10.54
589.742	3.54
589.864	27.54
589.986	19.54
590.109	-1.46
590.231	-0.46
590.354	2.54
590.476	0.54
590.598	-2.46
590.721	11.54
590.843	11.54
590.965	3.54
591.088	19.54
591.21	7.54
591.332	0.54
591.455	-3.46
591.577	2.54
591.7	12.54
591.822	8.54
591.944	11.54
592.067	-3.46
592.189	15.54
592.311	4.54
592.434	7.54
592.556	2.54
592.678	2.54
592.801	12.54
592.923	28.54
593.045	2.54
593.168	8.54
593.29	3.54
593.412	18.54
593.535	10.54
593.657	0.54
593.779	12.54
593.902	15.54
594.024	12.54
594.146	6.54
594.269	39.54
594.391	-9.46
594.513	21.54
594.636	-3.46
594.758	0.54
594.88	26.54
595.003	24.54
595.125	14.54
595.247	12.54
595.37	6.54
595.492	9.54
595.614	37.54
595.737	-0.46
595.859	17.54
595.981	5.54
596.104	7.54
596.226	-1.46
596.348	4.54
596.471	8.54
596.593	18.54
596.715	9.54
596.838	12.54
596.96	1.54
597.082	14.54
597.204	15.54
597.327	0.54
597.449	0.54
597.571	15.54
597.694	47.54
597.816	23.54
597.938	7.54
598.061	-8.46
598.183	-10.46
598.305	3.54
598.427	26.54
598.55	-10.46
598.672	10.54
598.794	8.54
598.917	12.54
599.039	16.54
599.161	9.54
599.283	13.54
599.406	10.54
599.528	14.54
599.65	34.54
599.773	27.54
599.895	35.54
600.017	11.54
600.139	2.54
600.262	6.54
600.384	21.54
600.506	11.54
600.628	12.54
600.751	20.54
600.873	7.54
600.995	7.54
601.118	30.54
601.24	-1.46
601.362	36.54
601.484	18.54
601.607	13.54
601.729	8.54
601.851	16.54
601.973	12.54
602.096	23.54
602.218	18.54
602.34	24.54
602.462	19.54
602.585	16.54
602.707	6.54
602.829	17.54
602.951	18.54
603.074	-0.46
603.196	5.54
603.318	-1.46
603.44	26.54
603.563	-1.46
603.685	-1.46
603.807	17.54
603.929	23.54
604.052	22.54
604.174	31.54
604.296	11.54
604.418	20.54
604.541	15.54
604.663	7.54
604.785	14.54
604.907	11.54
605.03	-0.46
605.152	51.54
605.274	-0.46
605.396	9.54
605.519	9.54
605.641	-3.46
605.763	7.54
605.885	17.54
606.008	11.54
606.13	4.54
606.252	29.54
606.374	-5.46
606.496	9.54
606.619	13.54
606.741	5.54
606.863	26.54
606.985	37.54
607.108	23.54
607.23	12.54
607.352	13.54
607.474	-0.46
607.596	8.54
607.719	15.54
607.841	20.54
607.963	7.54
608.085	-1.46
608.207	22.54
608.33	10.54
608.452	-2.46
608.574	20.54
608.696	29.54
608.819	26.54
608.941	20.54
609.063	-6.46
609.185	-3.46
609.307	24.54
609.43	25.54
609.552	32.54
609.674	-4.46
609.796	23.54
609.918	21.54
610.041	5.54
610.163	9.54
610.285	17.54
610.407	13.54
610.529	11.54
610.652	-3.46
610.774	-0.46
610.896	11.54
611.018	5.54
611.14	11.54
611.263	0.54
611.385	-0.46
611.507	3.54
611.629	1.54
611.751	18.54
611.873	32.54
611.996	13.54
612.118	18.54
612.24	2.54
612.362	9.54
612.484	31.54
612.607	18.54
612.729	17.54
612.851	3.54
612.973	7.54
613.095	5.54
613.218	8.54
613.34	25.54
613.462	19.54
613.584	11.54
613.706	7.54
613.828	28.54
613.951	14.54
614.073	2.54
614.195	-1.46
614.317	13.54
614.439	32.54
614.561	14.54
614.684	25.54
614.806	13.54
614.928	8.54
615.05	27.54
615.172	23.54
615.294	12.54
615.417	14.54
615.539	1.54
615.661	27.54
615.783	32.54
615.905	29.54
616.027	53.54
616.15	89.54
616.272	69.54
616.394	46.54
616.516	47.54
616.638	22.54
616.76	16.54
616.883	29.54
617.005	14.54
617.127	10.54
617.249	31.54
617.371	17.54
617.493	12.54
617.615	15.54
617.738	19.54
617.86	25.54
617.982	16.54
618.104	-3.46
618.226	-7.46
618.348	12.54
618.471	15.54
618.593	22.54
618.715	2.54
618.837	7.54
618.959	7.54
619.081	21.54
619.203	14.54
619.326	14.54
619.448	21.54
619.57	15.54
619.692	21.54
619.814	10.54
619.936	8.54
620.058	26.54
620.181	21.54
620.303	9.54
620.425	10.54
620.547	13.54
620.669	-1.46
620.791	-7.46
620.913	19.54
621.036	7.54
621.158	15.54
621.28	15.54
621.402	-7.46
621.524	2.54
621.646	5.54
621.768	10.54
621.891	-12.46
622.013	15.54
622.135	2.54
622.257	-11.46
622.379	-1.46
622.501	3.54
622.623	6.54
622.745	-4.46
622.868	3.54
622.99	2.54
623.112	-3.46
623.234	3.54
623.356	9.54
623.478	7.54
623.6	13.54
623.722	4.54
623.845	20.54
623.967	10.54
624.089	16.54
624.211	10.54
624.333	19.54
624.455	17.54
624.577	13.54
624.699	34.54
624.822	8.54
624.944	-3.46
625.066	-3.46
625.188	-5.46
625.31	14.54
625.432	38.54
625.554	0.54
625.676	21.54
625.799	6.54
625.921	23.54
626.043	26.54
626.165	5.54
626.287	-11.46
626.409	22.54
626.531	2.54
626.653	24.54
626.775	17.54
626.898	-10.46
627.02	12.54
627.142	15.54
627.264	-4.46
627.386	-5.46
627.508	12.54
627.63	-6.46
627.752	25.54
627.874	14.54
627.997	5.54
628.119	34.54
628.241	24.54
628.363	29.54
628.485	18.54
628.607	12.54
628.729	-1.46
628.851	3.54
628.973	6.54
629.096	0.54
629.218	16.54
629.34	1.54
629.462	-11.46
629.584	8.54
629.706	14.54
629.828	31.54
629.95	15.54
630.072	2.54
630.195	4.54
630.317	3.54
630.439	10.54
630.561	18.54
630.683	13.54
630.805	13.54
630.927	20.54
631.049	16.54
631.171	13.54
631.293	11.54
631.416	11.54
631.538	4.54
631.66	6.54
631.782	19.54
631.904	18.54
632.026	16.54
632.148	17.54
632.27	9.54
632.392	1.54
632.514	14.54
632.637	7.54
632.759	8.54
632.881	11.54
633.003	26.54
633.125	-5.46
633.247	8.54
633.369	8.54
633.491	-3.46
633.613	3.54
633.735	0.54
633.858	1.54
633.98	18.54
634.102	2.54
634.224	-4.46
634.346	-10.46
634.468	13.54
634.59	0.54
634.712	7.54
634.834	7.54
634.956	-7.46
635.078	-5.46
635.201	-13.46
635.323	0.54
635.445	-8.46
635.567	-7.46
635.689	10.54
635.811	3.54
635.933	12.54
636.055	-11.46
636.177	8.54
636.299	19.54
636.421	2.54
636.544	6.54
636.666	20.54
636.788	-1.46
636.91	7.54
637.032	-1.46
637.154	2.54
637.276	34.54
637.398	21.54
637.52	26.54
637.642	16.54
637.764	4.54
637.887	12.54
638.009	-1.46
638.131	14.54
638.253	-5.46
638.375	9.54
638.497	9.54
638.619	6.54
638.741	-1.46
638.863	-8.46
638.985	4.54
639.107	-0.46
639.23	20.54
639.352	0.54
639.474	23.54
639.596	6.54
639.718	5.54
639.84	14.54
639.962	10.54
640.084	36.54
640.206	25.54
640.328	7.54
640.45	10.54
640.573	1.54
640.695	22.54
640.817	-9.46
640.939	12.54
641.061	-10.46
641.183	-21.46
641.305	-0.46
641.427	9.54
641.549	3.54
641.671	0.54
641.793	10.54
641.915	22.54
642.038	8.54
642.16	26.54
642.282	16.54
642.404	6.54
642.526	23.54
642.648	20.54
642.77	17.54
642.892	-13.46
643.014	8.54
643.136	-0.46
643.258	9.54
643.381	24.54
643.503	23.54
643.625	2.54
643.747	-13.46
643.869	4.54
643.991	16.54
644.113	25.54
644.235	10.54
644.357	18.54
644.479	17.54
644.601	0.54
644.723	4.54
644.846	19.54
644.968	7.54
645.09	-4.46
645.212	-3.46
645.334	5.54
645.456	19.54
645.578	12.54
645.7	-1.46
645.822	28.54
645.944	10.54
646.066	22.54
646.188	1.54
646.311	21.54
646.433	10.54
646.555	56.54
646.677	27.54
646.799	38.54
646.921	28.54
647.043	26.54
647.165	4.54
647.287	5.54
647.409	-1.46
647.531	30.54
647.654	4.54
647.776	11.54
647.898	19.54
648.02	3.54
648.142	-9.46
648.264	0.54
648.386	-5.46
648.508	-7.46
648.63	20.54
648.752	3.54
648.874	9.54
648.997	6.54
649.119	27.54
649.241	13.54
649.363	33.54
649.485	6.54
649.607	7.54
649.729	-20.46
649.851	2.54
649.973	-3.46
650.095	0.54
650.217	-12.46
650.34	-7.46
650.462	0.54
650.584	13.54
650.706	17.54
650.828	13.54
650.95	-15.46
651.072	5.54
651.194	-3.46
651.316	-5.46
651.438	9.54
651.56	-10.46
651.683	-12.46
651.805	0.54
651.927	8.54
652.049	10.54
652.171	21.54
652.293	-4.46
652.415	-10.46
652.537	-29.46
652.659	-10.46
652.781	2.54
652.903	12.54
653.026	16.54
653.148	25.54
653.27	8.54
653.392	10.54
653.514	4.54
653.636	27.54
653.758	-6.46
653.88	3.54
654.002	9.54
654.124	7.54
654.247	5.54
654.369	35.54
654.491	10.54
654.613	16.54
654.735	-1.46
654.857	15.54
654.979	17.54
655.101	19.54
655.223	56.54
655.345	18.54
655.468	14.54
655.59	2.54
655.712	20.54
655.834	22.54
655.956	60.54
656.078	55.54
656.2	42.54
656.322	21.54
656.444	29.54
656.566	44.54
656.689	56.54
656.811	63.54
656.933	90.54
657.055	83.54
657.177	157.54
657.299	247.54
657.421	525.54
657.543	1878.54
657.665	12496.54
657.787	15166.54
657.91	15252.54
658.032	15661.54
658.154	4666.54
658.276	3456.54
658.398	1164.54
658.52	1018.54
658.642	479.54
658.764	608.54
658.886	261.54
659.009	390.54
659.131	221.54
659.253	319.54
659.375	151.54
659.497	231.54
659.619	144.54
659.741	205.54
659.863	92.54
659.985	145.54
660.108	88.54
660.23	147.54
660.352	78.54
660.474	137.54
660.596	70.54
660.718	116.54
660.84	50.54
660.962	109.54
661.084	53.54
661.207	99.54
661.329	48.54
661.451	84.54
661.573	58.54
661.695	120.54
661.817	48.54
661.939	102.54
662.061	57.54
662.184	61.54
662.306	44.54
662.428	76.54
662.55	54.54
662.672	54.54
662.794	41.54
662.916	63.54
663.038	47.54
663.161	68.54
663.283	34.54
663.405	78.54
663.527	39.54
663.649	83.54
663.771	21.54
663.893	55.54
664.015	38.54
664.138	57.54
664.26	8.54
664.382	48.54
664.504	30.54
664.626	29.54
664.748	19.54
664.87	38.54
664.992	21.54
665.115	66.54
665.237	9.54
665.359	36.54
665.481	6.54
665.603	64.54
665.725	16.54
665.847	6.54
665.97	24.54
666.092	48.54
666.214	33.54
666.336	25.54
666.458	28.54
666.58	37.54
666.702	3.54
666.825	33.54
666.947	4.54
667.069	28.54
667.191	14.54
667.313	27.54
667.435	5.54
667.557	20.54
667.68	-2.46
667.802	31.54
667.924	8.54
668.046	25.54
668.168	19.54
668.29	52.54
668.412	7.54
668.535	46.54
668.657	-4.46
668.779	15.54
668.901	9.54
669.023	32.54
669.145	-1.46
669.267	28.54
669.39	27.54
669.512	22.54
669.634	28.54
669.756	27.54
669.878	8.54
670	34.54
670.123	0.54
670.245	27.54
670.367	22.54
670.489	53.54
670.611	19.54
670.733	14.54
670.856	2.54
670.978	37.54
671.1	17.54
671.222	24.54
671.344	6.54
671.466	8.54
671.589	18.54
671.711	28.54
671.833	-1.46
671.955	26.54
672.077	13.54
672.199	33.54
672.322	23.54
672.444	5.54
672.566	9.54
672.688	19.54
672.81	13.54
672.932	32.54
673.055	-1.46
673.177	-1.46
673.299	14.54
673.421	-4.46
673.543	-1.46
673.665	36.54
673.788	25.54
673.91	26.54
674.032	-4.46
674.154	12.54
674.276	19.54
674.399	6.54
674.521	20.54
674.643	23.54
674.765	2.54
674.887	34.54
675.009	3.54
675.132	-1.46
675.254	19.54
675.376	27.54
675.498	8.54
675.62	33.54
675.743	18.54
675.865	42.54
675.987	1.54
676.109	9.54
676.231	13.54
676.354	40.54
676.476	1.54
676.598	22.54
676.72	4.54
676.842	19.54
676.965	13.54
677.087	8.54
677.209	5.54
677.331	30.54
677.453	-8.46
677.576	12.54
677.698	18.54
677.82	15.54
677.942	5.54
678.064	10.54
678.187	8.54
678.309	20.54
678.431	-16.46
678.553	10.54
678.675	24.54
678.798	19.54
678.92	14.54
679.042	17.54
679.164	-3.46
679.286	30.54
679.409	0.54
679.531	-0.46
679.653	0.54
679.775	-1.46
679.898	-3.46
680.02	13.54
680.142	8.54
680.264	20.54
680.386	-3.46
680.509	13.54
680.631	12.54
680.753	15.54
680.875	-9.46
680.998	18.54
681.12	14.54
681.242	10.54
681.364	-6.46
681.486	5.54
681.609	-3.46
681.731	-11.46
681.853	-6.46
681.975	10.54
682.098	17.54
682.22	29.54
682.342	9.54
682.464	21.54
682.587	13.54
682.709	8.54
682.831	-16.46
682.953	-0.46
683.076	2.54
683.198	15.54
683.32	21.54
683.442	20.54
683.565	11.54
683.687	-2.46
683.809	-0.46
683.931	-6.46
684.054	13.54
684.176	2.54
684.298	6.54
684.42	-4.46
684.543	13.54
684.665	10.54
684.787	6.54
684.909	13.54
685.032	12.54
685.154	9.54
685.276	3.54
685.398	10.54
685.521	1.54
685.643	16.54
685.765	0.54
685.887	17.54
686.01	15.54
686.132	-2.46
686.254	10.54
686.377	17.54
686.499	1.54
686.621	30.54
686.743	25.54
686.866	-13.46
686.988	19.54
687.11	31.54
687.232	-3.46
687.355	4.54
687.477	3.54
687.599	22.54
687.722	4.54
687.844	19.54
687.966	21.54
688.088	18.54
688.211	27.54
688.333	15.54
688.455	2.54
688.578	16.54
688.7	13.54
688.822	20.54
688.944	-4.46
689.067	30.54
689.189	20.54
689.311	-8.46
689.434	-13.46
689.556	3.54
689.678	15.54
689.801	11.54
689.923	12.54
690.045	44.54
690.167	26.54
690.29	30.54
690.412	6.54
690.534	15.54
690.657	8.54
690.779	4.54
690.901	11.54
691.024	1.54
691.146	-4.46
691.268	-2.46
691.391	15.54
691.513	28.54
691.635	14.54
691.758	31.54
691.88	12.54
692.002	8.54
692.125	16.54
692.247	3.54
692.369	-8.46
692.492	7.54
692.614	3.54
692.736	8.54
692.859	-7.46
692.981	-0.46
693.103	12.54
693.226	14.54
693.348	12.54
693.47	0.54
693.593	0.54
693.715	-11.46
693.837	-8.46
693.96	2.54
694.082	-4.46
694.204	-0.46
694.327	11.54
694.449	-16.46
694.571	10.54
694.694	15.54
694.816	0.54
694.938	17.54
695.061	-0.46
695.183	-7.46
695.305	-8.46
695.428	19.54
695.55	2.54
695.672	5.54
695.795	9.54
695.917	36.54
696.04	22.54
696.162	3.54
696.284	8.54
696.407	2.54
696.529	-3.46
696.651	15.54
696.774	-8.46
696.896	29.54
697.019	11.54
697.141	18.54
697.263	-6.46
697.386	6.54
697.508	-0.46
697.63	7.54
697.753	1.54
697.875	18.54
697.998	2.54
698.12	30.54
698.242	18.54
698.365	-3.46
698.487	4.54
698.61	20.54
698.732	0.54
698.854	29.54
698.977	15.54
699.099	19.54
699.221	-3.46
699.344	-18.46
699.466	6.54
699.589	-0.46
699.711	-6.46
699.834	-3.46
699.956	8.54
700.078	11.54
700.201	-0.46
700.323	17.54
700.446	6.54
700.568	-9.46
700.69	4.54
700.813	7.54
700.935	12.54
701.058	3.54
701.18	12.54
701.302	2.54
701.425	11.54
701.547	9.54
701.67	-7.46
701.792	2.54
701.915	2.54
702.037	10.54
702.159	13.54
702.282	9.54
702.404	-1.46
702.527	19.54
702.649	41.54
702.772	25.54
702.894	19.54
703.017	21.54
703.139	23.54
703.261	13.54
703.384	26.54
703.506	0.54
703.629	22.54
703.751	19.54
703.874	8.54
703.996	0.54
704.119	8.54
704.241	24.54
704.364	-4.46
704.486	13.54
704.608	6.54
704.731	7.54
704.853	11.54
704.976	10.54
705.098	-2.46
705.221	21.54
705.343	-6.46
705.466	-0.46
705.588	3.54
705.711	6.54
705.833	5.54
705.956	13.54
706.078	-3.46
706.201	14.54
706.323	10.54
706.446	8.54
