Data from LowRes_H2_15_26_11_07_2024_HR4C61881__44__15-28-18-037.txt Node

Date: Thu Nov 07 15:28:18 EST 2024
User: crc00042
Spectrometer: HR4C6188
Trigger mode: 4
Integration Time (sec): 1.000000E-1
Scans to average: 1
Electric dark correction enabled: true
Nonlinearity correction enabled: false
Boxcar width: 0
XAxis mode: Wavelengths
Number of Pixels in Spectrum: 3648
>>>>>Begin Spectral Data<<<<<
245.66	-96.46
245.797	-96.46
245.934	-96.46
246.071	-83.46
246.208	10.54
246.344	21.54
246.481	-12.46
246.618	-22.46
246.755	6.54
246.892	-0.46
247.029	-17.46
247.165	-22.46
247.302	18.54
247.439	7.54
247.576	15.54
247.713	-14.46
247.849	28.54
247.986	-8.46
248.123	13.54
248.26	2.54
248.396	38.54
248.533	15.54
248.67	-11.46
248.806	18.54
248.943	-11.46
249.08	-3.46
249.216	17.54
249.353	-8.46
249.49	2.54
249.626	6.54
249.763	-3.46
249.9	-16.46
250.036	19.54
250.173	3.54
250.309	9.54
250.446	23.54
250.582	6.54
250.719	9.54
250.856	1.54
250.992	8.54
251.129	-1.46
251.265	-6.46
251.402	5.54
251.538	-4.46
251.675	1.54
251.811	16.54
251.948	13.54
252.084	11.54
252.221	-7.46
252.357	-10.46
252.493	17.54
252.63	0.54
252.766	4.54
252.903	5.54
253.039	8.54
253.175	0.54
253.312	9.54
253.448	-5.46
253.585	-8.46
253.721	18.54
253.857	0.54
253.994	1.54
254.13	3.54
254.266	20.54
254.403	9.54
254.539	16.54
254.675	1.54
254.811	13.54
254.948	-1.46
255.084	-10.46
255.22	1.54
255.356	21.54
255.493	8.54
255.629	2.54
255.765	3.54
255.901	14.54
256.037	16.54
256.174	-1.46
256.31	-11.46
256.446	-7.46
256.582	3.54
256.718	13.54
256.854	16.54
256.991	5.54
257.127	26.54
257.263	13.54
257.399	17.54
257.535	-1.46
257.671	-19.46
257.807	-6.46
257.943	-6.46
258.079	-16.46
258.215	-7.46
258.351	16.54
258.487	1.54
258.623	27.54
258.759	-14.46
258.895	5.54
259.031	0.54
259.167	-13.46
259.303	15.54
259.439	-4.46
259.575	8.54
259.711	9.54
259.847	4.54
259.983	7.54
260.119	12.54
260.255	14.54
260.391	1.54
260.527	14.54
260.663	24.54
260.799	22.54
260.934	9.54
261.07	-3.46
261.206	-1.46
261.342	-13.46
261.478	28.54
261.614	24.54
261.749	8.54
261.885	-27.46
262.021	8.54
262.157	10.54
262.293	9.54
262.428	-1.46
262.564	-12.46
262.7	5.54
262.836	-2.46
262.971	12.54
263.107	26.54
263.243	15.54
263.378	-0.46
263.514	-1.46
263.65	0.54
263.785	-7.46
263.921	-19.46
264.057	19.54
264.192	16.54
264.328	28.54
264.464	-2.46
264.599	17.54
264.735	25.54
264.871	3.54
265.006	0.54
265.142	17.54
265.277	18.54
265.413	9.54
265.548	20.54
265.684	16.54
265.819	-1.46
265.955	-1.46
266.091	-12.46
266.226	-19.46
266.362	-1.46
266.497	0.54
266.633	-4.46
266.768	-3.46
266.903	25.54
267.039	-0.46
267.174	17.54
267.31	7.54
267.445	-4.46
267.581	-0.46
267.716	5.54
267.851	24.54
267.987	19.54
268.122	14.54
268.258	3.54
268.393	-25.46
268.528	-3.46
268.664	-3.46
268.799	-7.46
268.934	-0.46
269.07	5.54
269.205	25.54
269.34	20.54
269.476	-7.46
269.611	-16.46
269.746	29.54
269.881	3.54
270.017	23.54
270.152	3.54
270.287	-0.46
270.422	5.54
270.558	13.54
270.693	29.54
270.828	-6.46
270.963	5.54
271.098	3.54
271.234	8.54
271.369	11.54
271.504	0.54
271.639	-8.46
271.774	-3.46
271.909	9.54
272.045	-8.46
272.18	-0.46
272.315	11.54
272.45	39.54
272.585	11.54
272.72	12.54
272.855	17.54
272.99	20.54
273.125	1.54
273.26	-3.46
273.395	2.54
273.53	-3.46
273.665	8.54
273.8	1.54
273.935	-5.46
274.07	-5.46
274.205	-0.46
274.34	-7.46
274.475	9.54
274.61	25.54
274.745	-9.46
274.88	22.54
275.015	-16.46
275.15	15.54
275.285	20.54
275.42	14.54
275.555	15.54
275.69	21.54
275.825	10.54
275.959	1.54
276.094	-14.46
276.229	0.54
276.364	-18.46
276.499	-7.46
276.634	9.54
276.768	9.54
276.903	-0.46
277.038	12.54
277.173	5.54
277.308	3.54
277.442	-7.46
277.577	-24.46
277.712	-6.46
277.847	-6.46
277.981	10.54
278.116	-11.46
278.251	-1.46
278.386	7.54
278.52	21.54
278.655	-10.46
278.79	21.54
278.924	17.54
279.059	4.54
279.194	-9.46
279.328	47.54
279.463	0.54
279.598	26.54
279.732	6.54
279.867	20.54
280.001	17.54
280.136	10.54
280.271	8.54
280.405	7.54
280.54	6.54
280.674	-16.46
280.809	17.54
280.943	17.54
281.078	19.54
281.213	-4.46
281.347	4.54
281.482	-0.46
281.616	9.54
281.751	-2.46
281.885	-21.46
282.02	5.54
282.154	16.54
282.288	-9.46
282.423	-7.46
282.557	-18.46
282.692	13.54
282.826	9.54
282.961	12.54
283.095	9.54
283.229	18.54
283.364	-12.46
283.498	-6.46
283.633	8.54
283.767	2.54
283.901	1.54
284.036	5.54
284.17	-6.46
284.304	10.54
284.439	7.54
284.573	20.54
284.707	25.54
284.842	3.54
284.976	3.54
285.11	7.54
285.244	0.54
285.379	44.54
285.513	6.54
285.647	16.54
285.781	2.54
285.916	34.54
286.05	10.54
286.184	37.54
286.318	19.54
286.453	-1.46
286.587	-19.46
286.721	-6.46
286.855	0.54
286.989	-0.46
287.123	-3.46
287.258	-9.46
287.392	6.54
287.526	11.54
287.66	4.54
287.794	-0.46
287.928	-0.46
288.062	-14.46
288.196	5.54
288.33	-5.46
288.464	-3.46
288.598	25.54
288.733	7.54
288.867	7.54
289.001	12.54
289.135	14.54
289.269	11.54
289.403	16.54
289.537	-0.46
289.671	-5.46
289.805	-12.46
289.939	-3.46
290.073	4.54
290.207	21.54
290.34	-11.46
290.474	18.54
290.608	4.54
290.742	-5.46
290.876	-3.46
291.01	1.54
291.144	8.54
291.278	19.54
291.412	-3.46
291.546	3.54
291.679	0.54
291.813	12.54
291.947	9.54
292.081	-2.46
292.215	-4.46
292.349	6.54
292.482	2.54
292.616	14.54
292.75	18.54
292.884	16.54
293.018	0.54
293.151	-10.46
293.285	-9.46
293.419	14.54
293.553	17.54
293.686	-17.46
293.82	22.54
293.954	27.54
294.088	40.54
294.221	-3.46
294.355	7.54
294.489	6.54
294.622	9.54
294.756	-0.46
294.89	3.54
295.023	-2.46
295.157	14.54
295.291	7.54
295.424	21.54
295.558	4.54
295.691	13.54
295.825	2.54
295.959	-0.46
296.092	-0.46
296.226	-7.46
296.359	-1.46
296.493	18.54
296.627	3.54
296.76	-2.46
296.894	9.54
297.027	5.54
297.161	-3.46
297.294	-10.46
297.428	-3.46
297.561	40.54
297.695	4.54
297.828	-12.46
297.962	-1.46
298.095	0.54
298.229	7.54
298.362	4.54
298.495	-12.46
298.629	7.54
298.762	3.54
298.896	11.54
299.029	-8.46
299.162	17.54
299.296	0.54
299.429	-10.46
299.563	9.54
299.696	7.54
299.829	13.54
299.963	29.54
300.096	15.54
300.229	11.54
300.363	11.54
300.496	6.54
300.629	-13.46
300.763	-10.46
300.896	-10.46
301.029	13.54
301.162	7.54
301.296	-9.46
301.429	5.54
301.562	-16.46
301.695	20.54
301.829	15.54
301.962	17.54
302.095	-0.46
302.228	-12.46
302.362	-20.46
302.495	-14.46
302.628	13.54
302.761	-3.46
302.894	5.54
303.027	-0.46
303.161	-1.46
303.294	-4.46
303.427	-3.46
303.56	4.54
303.693	19.54
303.826	24.54
303.959	-0.46
304.092	0.54
304.225	-7.46
304.359	16.54
304.492	25.54
304.625	-3.46
304.758	22.54
304.891	-5.46
305.024	1.54
305.157	18.54
305.29	2.54
305.423	11.54
305.556	22.54
305.689	19.54
305.822	6.54
305.955	1.54
306.088	-3.46
306.221	2.54
306.354	10.54
306.487	-2.46
306.62	-16.46
306.752	-2.46
306.885	8.54
307.018	13.54
307.151	9.54
307.284	16.54
307.417	3.54
307.55	9.54
307.683	8.54
307.816	13.54
307.948	1.54
308.081	22.54
308.214	11.54
308.347	19.54
308.48	-0.46
308.613	-1.46
308.745	26.54
308.878	-5.46
309.011	14.54
309.144	9.54
309.277	14.54
309.409	17.54
309.542	-1.46
309.675	12.54
309.808	6.54
309.94	16.54
310.073	-3.46
310.206	-14.46
310.339	4.54
310.471	-11.46
310.604	15.54
310.737	-4.46
310.869	-12.46
311.002	-2.46
311.135	-2.46
311.267	4.54
311.4	-16.46
311.533	10.54
311.665	3.54
311.798	12.54
311.93	-9.46
312.063	24.54
312.196	12.54
312.328	5.54
312.461	-0.46
312.593	8.54
312.726	-0.46
312.859	4.54
312.991	4.54
313.124	-19.46
313.256	-3.46
313.389	11.54
313.521	-6.46
313.654	12.54
313.786	-8.46
313.919	-7.46
314.051	-17.46
314.184	13.54
314.316	19.54
314.449	-9.46
314.581	7.54
314.714	14.54
314.846	18.54
314.978	-22.46
315.111	-3.46
315.243	3.54
315.376	-2.46
315.508	5.54
315.641	4.54
315.773	30.54
315.905	1.54
316.038	4.54
316.17	1.54
316.302	13.54
316.435	1.54
316.567	10.54
316.699	27.54
316.832	13.54
316.964	-1.46
317.096	1.54
317.229	0.54
317.361	-21.46
317.493	-7.46
317.625	12.54
317.758	-2.46
317.89	13.54
318.022	-9.46
318.155	-4.46
318.287	12.54
318.419	0.54
318.551	-0.46
318.683	-9.46
318.816	-4.46
318.948	-2.46
319.08	4.54
319.212	8.54
319.344	10.54
319.477	-3.46
319.609	18.54
319.741	19.54
319.873	-9.46
320.005	-16.46
320.137	14.54
320.269	1.54
320.401	7.54
320.534	-7.46
320.666	-12.46
320.798	-17.46
320.93	5.54
321.062	-3.46
321.194	-14.46
321.326	-7.46
321.458	2.54
321.59	-8.46
321.722	-8.46
321.854	8.54
321.986	4.54
322.118	8.54
322.25	-0.46
322.382	-12.46
322.514	-6.46
322.646	-12.46
322.778	21.54
322.91	2.54
323.042	9.54
323.174	18.54
323.306	-22.46
323.438	-14.46
323.57	9.54
323.702	0.54
323.834	0.54
323.966	-6.46
324.097	4.54
324.229	22.54
324.361	32.54
324.493	24.54
324.625	4.54
324.757	16.54
324.889	1.54
325.021	28.54
325.152	5.54
325.284	29.54
325.416	5.54
325.548	25.54
325.68	1.54
325.811	26.54
325.943	27.54
326.075	10.54
326.207	-13.46
326.339	-2.46
326.47	4.54
326.602	14.54
326.734	-0.46
326.866	5.54
326.997	-11.46
327.129	-14.46
327.261	-14.46
327.392	-9.46
327.524	5.54
327.656	-1.46
327.787	15.54
327.919	6.54
328.051	3.54
328.182	37.54
328.314	36.54
328.446	16.54
328.577	9.54
328.709	22.54
328.841	9.54
328.972	-7.46
329.104	-3.46
329.235	0.54
329.367	0.54
329.499	2.54
329.63	10.54
329.762	21.54
329.893	8.54
330.025	9.54
330.156	-13.46
330.288	28.54
330.419	38.54
330.551	15.54
330.683	10.54
330.814	-0.46
330.946	21.54
331.077	7.54
331.208	0.54
331.34	9.54
331.471	-5.46
331.603	16.54
331.734	0.54
331.866	20.54
331.997	17.54
332.129	-2.46
332.26	-9.46
332.392	28.54
332.523	2.54
332.654	-1.46
332.786	-11.46
332.917	-11.46
333.048	3.54
333.18	9.54
333.311	-6.46
333.443	-6.46
333.574	6.54
333.705	32.54
333.837	4.54
333.968	0.54
334.099	25.54
334.231	31.54
334.362	14.54
334.493	13.54
334.624	22.54
334.756	24.54
334.887	2.54
335.018	1.54
335.15	4.54
335.281	15.54
335.412	-0.46
335.543	12.54
335.675	14.54
335.806	22.54
335.937	18.54
336.068	4.54
336.199	28.54
336.331	-2.46
336.462	-11.46
336.593	9.54
336.724	-0.46
336.855	16.54
336.986	35.54
337.118	22.54
337.249	15.54
337.38	10.54
337.511	13.54
337.642	3.54
337.773	-3.46
337.904	17.54
338.035	8.54
338.166	6.54
338.298	5.54
338.429	-3.46
338.56	9.54
338.691	27.54
338.822	7.54
338.953	-1.46
339.084	12.54
339.215	20.54
339.346	12.54
339.477	-6.46
339.608	3.54
339.739	2.54
339.87	-1.46
340.001	-8.46
340.132	5.54
340.263	-0.46
340.394	25.54
340.525	5.54
340.656	-3.46
340.787	-9.46
340.918	12.54
341.049	6.54
341.179	24.54
341.31	10.54
341.441	6.54
341.572	8.54
341.703	10.54
341.834	-5.46
341.965	23.54
342.096	9.54
342.227	4.54
342.357	8.54
342.488	7.54
342.619	10.54
342.75	-13.46
342.881	-1.46
343.012	26.54
343.142	18.54
343.273	2.54
343.404	1.54
343.535	32.54
343.666	32.54
343.796	22.54
343.927	17.54
344.058	10.54
344.189	29.54
344.319	12.54
344.45	17.54
344.581	10.54
344.712	-17.46
344.842	14.54
344.973	-7.46
345.104	3.54
345.234	3.54
345.365	10.54
345.496	1.54
345.626	23.54
345.757	19.54
345.888	-6.46
346.018	5.54
346.149	9.54
346.28	20.54
346.41	-10.46
346.541	22.54
346.672	0.54
346.802	29.54
346.933	14.54
347.063	11.54
347.194	8.54
347.325	12.54
347.455	25.54
347.586	12.54
347.716	-8.46
347.847	18.54
347.977	0.54
348.108	13.54
348.238	20.54
348.369	4.54
348.499	8.54
348.63	10.54
348.76	7.54
348.891	24.54
349.021	31.54
349.152	12.54
349.282	18.54
349.413	15.54
349.543	19.54
349.674	3.54
349.804	15.54
349.935	-11.46
350.065	0.54
350.196	-3.46
350.326	12.54
350.456	4.54
350.587	15.54
350.717	-8.46
350.848	18.54
350.978	16.54
351.108	-14.46
351.239	22.54
351.369	-0.46
351.499	17.54
351.63	13.54
351.76	9.54
351.89	3.54
352.021	2.54
352.151	3.54
352.281	8.54
352.412	17.54
352.542	16.54
352.672	6.54
352.803	-1.46
352.933	6.54
353.063	13.54
353.193	20.54
353.324	8.54
353.454	16.54
353.584	11.54
353.714	1.54
353.845	15.54
353.975	3.54
354.105	-1.46
354.235	6.54
354.365	-10.46
354.496	26.54
354.626	41.54
354.756	32.54
354.886	-3.46
355.016	12.54
355.146	9.54
355.277	5.54
355.407	7.54
355.537	-8.46
355.667	0.54
355.797	-6.46
355.927	3.54
356.057	7.54
356.187	-6.46
356.318	-6.46
356.448	30.54
356.578	-3.46
356.708	21.54
356.838	2.54
356.968	6.54
357.098	8.54
357.228	25.54
357.358	12.54
357.488	-0.46
357.618	28.54
357.748	16.54
357.878	8.54
358.008	6.54
358.138	18.54
358.268	18.54
358.398	10.54
358.528	1.54
358.658	21.54
358.788	10.54
358.918	18.54
359.048	9.54
359.178	16.54
359.308	31.54
359.438	31.54
359.568	29.54
359.698	18.54
359.827	11.54
359.957	7.54
360.087	5.54
360.217	-3.46
360.347	17.54
360.477	28.54
360.607	-19.46
360.737	34.54
360.866	9.54
360.996	0.54
361.126	-2.46
361.256	24.54
361.386	14.54
361.516	23.54
361.645	-1.46
361.775	19.54
361.905	1.54
362.035	13.54
362.165	-12.46
362.294	18.54
362.424	31.54
362.554	28.54
362.684	6.54
362.813	-2.46
362.943	10.54
363.073	6.54
363.203	-0.46
363.332	5.54
363.462	-6.46
363.592	-1.46
363.721	3.54
363.851	7.54
363.981	14.54
364.111	13.54
364.24	-12.46
364.37	10.54
364.5	11.54
364.629	19.54
364.759	-8.46
364.888	-7.46
365.018	16.54
365.148	5.54
365.277	20.54
365.407	18.54
365.537	27.54
365.666	7.54
365.796	13.54
365.925	20.54
366.055	28.54
366.184	-1.46
366.314	18.54
366.444	9.54
366.573	-2.46
366.703	0.54
366.832	16.54
366.962	-0.46
367.091	11.54
367.221	15.54
367.35	-7.46
367.48	44.54
367.609	30.54
367.739	25.54
367.868	12.54
367.998	-5.46
368.127	23.54
368.257	22.54
368.386	23.54
368.516	26.54
368.645	0.54
368.775	11.54
368.904	20.54
369.033	-0.46
369.163	-8.46
369.292	20.54
369.422	10.54
369.551	13.54
369.68	20.54
369.81	17.54
369.939	-1.46
370.069	27.54
370.198	14.54
370.327	-1.46
370.457	1.54
370.586	21.54
370.715	3.54
370.845	1.54
370.974	19.54
371.103	34.54
371.233	16.54
371.362	-4.46
371.491	3.54
371.621	7.54
371.75	7.54
371.879	-5.46
372.008	16.54
372.138	4.54
372.267	11.54
372.396	-0.46
372.525	15.54
372.655	12.54
372.784	11.54
372.913	-8.46
373.042	18.54
373.172	14.54
373.301	-12.46
373.43	-5.46
373.559	12.54
373.688	24.54
373.818	21.54
373.947	8.54
374.076	8.54
374.205	20.54
374.334	0.54
374.463	6.54
374.593	19.54
374.722	12.54
374.851	41.54
374.98	-11.46
375.109	4.54
375.238	33.54
375.367	30.54
375.496	-4.46
375.625	-1.46
375.755	10.54
375.884	23.54
376.013	19.54
376.142	-6.46
376.271	3.54
376.4	9.54
376.529	18.54
376.658	11.54
376.787	-8.46
376.916	4.54
377.045	5.54
377.174	14.54
377.303	2.54
377.432	34.54
377.561	11.54
377.69	5.54
377.819	7.54
377.948	5.54
378.077	-15.46
378.206	2.54
378.335	9.54
378.464	5.54
378.593	24.54
378.722	3.54
378.851	12.54
378.98	31.54
379.108	1.54
379.237	-3.46
379.366	17.54
379.495	25.54
379.624	18.54
379.753	5.54
379.882	5.54
380.011	4.54
380.14	-0.46
380.268	10.54
380.397	5.54
380.526	32.54
380.655	5.54
380.784	1.54
380.913	4.54
381.041	16.54
381.17	0.54
381.299	-1.46
381.428	30.54
381.557	26.54
381.685	25.54
381.814	21.54
381.943	4.54
382.072	-12.46
382.2	10.54
382.329	1.54
382.458	-1.46
382.587	0.54
382.715	27.54
382.844	29.54
382.973	24.54
383.102	15.54
383.23	3.54
383.359	-10.46
383.488	-2.46
383.616	5.54
383.745	-2.46
383.874	20.54
384.003	5.54
384.131	-6.46
384.26	2.54
384.389	9.54
384.517	-8.46
384.646	10.54
384.774	16.54
384.903	14.54
385.032	17.54
385.16	2.54
385.289	-1.46
385.418	-2.46
385.546	14.54
385.675	19.54
385.803	11.54
385.932	25.54
386.06	2.54
386.189	-1.46
386.318	15.54
386.446	9.54
386.575	13.54
386.703	6.54
386.832	8.54
386.96	6.54
387.089	37.54
387.217	10.54
387.346	-6.46
387.474	1.54
387.603	12.54
387.731	6.54
387.86	20.54
387.988	9.54
388.117	14.54
388.245	14.54
388.374	22.54
388.502	37.54
388.631	-18.46
388.759	0.54
388.888	15.54
389.016	4.54
389.144	-6.46
389.273	6.54
389.401	4.54
389.53	-8.46
389.658	26.54
389.786	-4.46
389.915	-20.46
390.043	-1.46
390.172	1.54
390.3	15.54
390.428	12.54
390.557	-11.46
390.685	11.54
390.813	14.54
390.942	27.54
391.07	13.54
391.198	-0.46
391.327	3.54
391.455	5.54
391.583	26.54
391.712	26.54
391.84	1.54
391.968	1.54
392.096	10.54
392.225	8.54
392.353	21.54
392.481	0.54
392.609	31.54
392.738	13.54
392.866	27.54
392.994	9.54
393.122	29.54
393.251	12.54
393.379	-6.46
393.507	-17.46
393.635	4.54
393.764	4.54
393.892	35.54
394.02	13.54
394.148	16.54
394.276	14.54
394.404	24.54
394.533	15.54
394.661	16.54
394.789	34.54
394.917	27.54
395.045	5.54
395.173	13.54
395.302	10.54
395.43	12.54
395.558	9.54
395.686	22.54
395.814	-4.46
395.942	-2.46
396.07	4.54
396.198	9.54
396.326	24.54
396.454	-5.46
396.582	7.54
396.711	16.54
396.839	10.54
396.967	25.54
397.095	3.54
397.223	1.54
397.351	27.54
397.479	10.54
397.607	-3.46
397.735	20.54
397.863	20.54
397.991	8.54
398.119	-3.46
398.247	15.54
398.375	13.54
398.503	16.54
398.631	16.54
398.759	2.54
398.887	11.54
399.015	-3.46
399.143	6.54
399.271	4.54
399.399	9.54
399.526	12.54
399.654	31.54
399.782	15.54
399.91	34.54
400.038	33.54
400.166	7.54
400.294	3.54
400.422	-3.46
400.55	14.54
400.678	-2.46
400.805	16.54
400.933	-12.46
401.061	11.54
401.189	22.54
401.317	17.54
401.445	29.54
401.573	31.54
401.7	12.54
401.828	-2.46
401.956	-2.46
402.084	8.54
402.212	25.54
402.34	24.54
402.467	23.54
402.595	5.54
402.723	-7.46
402.851	19.54
402.978	12.54
403.106	12.54
403.234	3.54
403.362	9.54
403.489	33.54
403.617	30.54
403.745	3.54
403.873	-11.46
404	8.54
404.128	19.54
404.256	27.54
404.384	40.54
404.511	26.54
404.639	-4.46
404.767	15.54
404.894	26.54
405.022	10.54
405.15	24.54
405.277	-4.46
405.405	5.54
405.533	4.54
405.66	-2.46
405.788	-11.46
405.916	-6.46
406.043	-11.46
406.171	7.54
406.299	14.54
406.426	10.54
406.554	28.54
406.681	20.54
406.809	6.54
406.937	2.54
407.064	-6.46
407.192	21.54
407.319	14.54
407.447	-1.46
407.574	39.54
407.702	18.54
407.83	-10.46
407.957	-2.46
408.085	-4.46
408.212	0.54
408.34	13.54
408.467	-10.46
408.595	9.54
408.722	24.54
408.85	28.54
408.977	9.54
409.105	13.54
409.232	20.54
409.36	29.54
409.487	3.54
409.615	25.54
409.742	23.54
409.87	26.54
409.997	35.54
410.125	50.54
410.252	70.54
410.379	47.54
410.507	18.54
410.634	12.54
410.762	19.54
410.889	39.54
411.017	17.54
411.144	18.54
411.271	10.54
411.399	13.54
411.526	7.54
411.653	21.54
411.781	39.54
411.908	32.54
412.036	10.54
412.163	31.54
412.29	36.54
412.418	12.54
412.545	14.54
412.672	3.54
412.8	27.54
412.927	27.54
413.054	31.54
413.182	23.54
413.309	18.54
413.436	17.54
413.564	-7.46
413.691	-2.46
413.818	7.54
413.945	-1.46
414.073	4.54
414.2	3.54
414.327	13.54
414.454	17.54
414.582	9.54
414.709	-8.46
414.836	-7.46
414.963	-1.46
415.091	16.54
415.218	15.54
415.345	13.54
415.472	23.54
415.6	2.54
415.727	31.54
415.854	20.54
415.981	10.54
416.108	12.54
416.236	23.54
416.363	11.54
416.49	16.54
416.617	1.54
416.744	12.54
416.871	10.54
416.998	4.54
417.126	23.54
417.253	10.54
417.38	-1.46
417.507	21.54
417.634	19.54
417.761	-2.46
417.888	10.54
418.015	7.54
418.143	28.54
418.27	20.54
418.397	29.54
418.524	17.54
418.651	8.54
418.778	12.54
418.905	46.54
419.032	12.54
419.159	12.54
419.286	41.54
419.413	13.54
419.54	29.54
419.667	20.54
419.794	3.54
419.921	14.54
420.048	22.54
420.175	18.54
420.302	10.54
420.429	24.54
420.556	5.54
420.683	-0.46
420.81	6.54
420.937	11.54
421.064	10.54
421.191	7.54
421.318	13.54
421.445	20.54
421.572	12.54
421.699	23.54
421.826	10.54
421.953	15.54
422.08	8.54
422.207	-9.46
422.334	6.54
422.461	31.54
422.588	10.54
422.714	7.54
422.841	27.54
422.968	27.54
423.095	37.54
423.222	9.54
423.349	17.54
423.476	21.54
423.603	16.54
423.729	1.54
423.856	-0.46
423.983	30.54
424.11	-7.46
424.237	1.54
424.364	34.54
424.491	26.54
424.617	2.54
424.744	24.54
424.871	14.54
424.998	8.54
425.125	-1.46
425.251	9.54
425.378	8.54
425.505	26.54
425.632	27.54
425.758	5.54
425.885	6.54
426.012	18.54
426.139	29.54
426.266	10.54
426.392	6.54
426.519	17.54
426.646	4.54
426.772	14.54
426.899	23.54
427.026	17.54
427.153	12.54
427.279	28.54
427.406	18.54
427.533	16.54
427.659	7.54
427.786	14.54
427.913	13.54
428.039	-7.46
428.166	10.54
428.293	19.54
428.419	26.54
428.546	20.54
428.673	2.54
428.799	0.54
428.926	18.54
429.053	24.54
429.179	14.54
429.306	16.54
429.433	43.54
429.559	32.54
429.686	-9.46
429.812	1.54
429.939	-1.46
430.066	-0.46
430.192	0.54
430.319	24.54
430.445	14.54
430.572	16.54
430.699	7.54
430.825	3.54
430.952	14.54
431.078	8.54
431.205	23.54
431.331	14.54
431.458	12.54
431.584	15.54
431.711	3.54
431.837	13.54
431.964	21.54
432.09	13.54
432.217	5.54
432.343	13.54
432.47	30.54
432.596	14.54
432.723	1.54
432.849	3.54
432.976	24.54
433.102	25.54
433.229	6.54
433.355	44.54
433.482	68.54
433.608	142.54
433.735	160.54
433.861	127.54
433.987	144.54
434.114	236.54
434.24	204.54
434.367	80.54
434.493	13.54
434.62	20.54
434.746	15.54
434.872	-0.46
434.999	27.54
435.125	-1.46
435.252	-6.46
435.378	9.54
435.504	-1.46
435.631	34.54
435.757	23.54
435.883	17.54
436.01	25.54
436.136	17.54
436.262	23.54
436.389	16.54
436.515	22.54
436.641	15.54
436.768	20.54
436.894	15.54
437.02	17.54
437.147	25.54
437.273	28.54
437.399	18.54
437.526	29.54
437.652	13.54
437.778	15.54
437.904	0.54
438.031	8.54
438.157	19.54
438.283	8.54
438.409	1.54
438.536	9.54
438.662	18.54
438.788	29.54
438.914	32.54
439.041	32.54
439.167	27.54
439.293	-1.46
439.419	9.54
439.546	16.54
439.672	3.54
439.798	27.54
439.924	32.54
440.05	32.54
440.177	29.54
440.303	20.54
440.429	-9.46
440.555	7.54
440.681	20.54
440.807	32.54
440.934	25.54
441.06	8.54
441.186	15.54
441.312	5.54
441.438	22.54
441.564	15.54
441.69	-2.46
441.816	25.54
441.943	24.54
442.069	2.54
442.195	17.54
442.321	11.54
442.447	25.54
442.573	11.54
442.699	-0.46
442.825	-0.46
442.951	3.54
443.077	20.54
443.203	26.54
443.33	9.54
443.456	-6.46
443.582	22.54
443.708	11.54
443.834	23.54
443.96	22.54
444.086	31.54
444.212	39.54
444.338	30.54
444.464	21.54
444.59	35.54
444.716	32.54
444.842	-0.46
444.968	17.54
445.094	19.54
445.22	19.54
445.346	19.54
445.472	29.54
445.598	-6.46
445.724	4.54
445.85	22.54
445.976	9.54
446.102	16.54
446.228	22.54
446.354	18.54
446.48	7.54
446.605	12.54
446.731	24.54
446.857	4.54
446.983	25.54
447.109	4.54
447.235	3.54
447.361	-2.46
447.487	25.54
447.613	29.54
447.739	0.54
447.865	8.54
447.99	7.54
448.116	11.54
448.242	17.54
448.368	7.54
448.494	-4.46
448.62	30.54
448.746	26.54
448.872	-2.46
448.997	-12.46
449.123	16.54
449.249	23.54
449.375	32.54
449.501	11.54
449.627	13.54
449.752	28.54
449.878	4.54
450.004	22.54
450.13	2.54
450.256	1.54
450.381	17.54
450.507	9.54
450.633	27.54
450.759	30.54
450.884	10.54
451.01	25.54
451.136	22.54
451.262	9.54
451.388	20.54
451.513	-0.46
451.639	21.54
451.765	8.54
451.89	29.54
452.016	27.54
452.142	32.54
452.268	8.54
452.393	13.54
452.519	-9.46
452.645	24.54
452.771	3.54
452.896	4.54
453.022	-5.46
453.148	24.54
453.273	14.54
453.399	3.54
453.525	5.54
453.65	5.54
453.776	19.54
453.902	11.54
454.027	29.54
454.153	31.54
454.279	39.54
454.404	-1.46
454.53	22.54
454.656	28.54
454.781	3.54
454.907	9.54
455.032	10.54
455.158	29.54
455.284	36.54
455.409	25.54
455.535	13.54
455.66	24.54
455.786	21.54
455.912	18.54
456.037	11.54
456.163	18.54
456.288	27.54
456.414	3.54
456.539	-6.46
456.665	20.54
456.791	17.54
456.916	7.54
457.042	20.54
457.167	-2.46
457.293	24.54
457.418	18.54
457.544	20.54
457.669	0.54
457.795	-9.46
457.92	35.54
458.046	7.54
458.171	17.54
458.297	12.54
458.422	-4.46
458.548	3.54
458.673	16.54
458.799	13.54
458.924	-1.46
459.05	-2.46
459.175	1.54
459.301	-1.46
459.426	39.54
459.552	33.54
459.677	6.54
459.803	30.54
459.928	22.54
460.053	14.54
460.179	37.54
460.304	13.54
460.43	-21.46
460.555	5.54
460.681	3.54
460.806	28.54
460.931	27.54
461.057	23.54
461.182	21.54
461.308	18.54
461.433	17.54
461.558	14.54
461.684	19.54
461.809	27.54
461.934	-1.46
462.06	23.54
462.185	5.54
462.311	7.54
462.436	22.54
462.561	11.54
462.687	4.54
462.812	7.54
462.937	3.54
463.063	1.54
463.188	-4.46
463.313	24.54
463.439	15.54
463.564	9.54
463.689	14.54
463.814	37.54
463.94	-8.46
464.065	21.54
464.19	3.54
464.316	1.54
464.441	11.54
464.566	1.54
464.692	7.54
464.817	4.54
464.942	10.54
465.067	20.54
465.193	-6.46
465.318	3.54
465.443	27.54
465.568	17.54
465.694	30.54
465.819	32.54
465.944	19.54
466.069	6.54
466.194	-0.46
466.32	22.54
466.445	6.54
466.57	-9.46
466.695	-14.46
466.82	9.54
466.946	27.54
467.071	5.54
467.196	-4.46
467.321	13.54
467.446	19.54
467.572	39.54
467.697	8.54
467.822	8.54
467.947	37.54
468.072	5.54
468.197	14.54
468.323	1.54
468.448	-2.46
468.573	6.54
468.698	-3.46
468.823	24.54
468.948	32.54
469.073	25.54
469.198	15.54
469.324	33.54
469.449	19.54
469.574	27.54
469.699	28.54
469.824	34.54
469.949	16.54
470.074	12.54
470.199	41.54
470.324	20.54
470.449	22.54
470.574	7.54
470.7	6.54
470.825	30.54
470.95	47.54
471.075	16.54
471.2	5.54
471.325	30.54
471.45	-4.46
471.575	-7.46
471.7	5.54
471.825	4.54
471.95	6.54
472.075	10.54
472.2	6.54
472.325	17.54
472.45	3.54
472.575	10.54
472.7	-0.46
472.825	18.54
472.95	38.54
473.075	13.54
473.2	-11.46
473.325	0.54
473.45	13.54
473.575	1.54
473.7	16.54
473.825	12.54
473.95	22.54
474.075	26.54
474.2	23.54
474.325	10.54
474.45	34.54
474.574	19.54
474.699	31.54
474.824	30.54
474.949	17.54
475.074	24.54
475.199	34.54
475.324	28.54
475.449	15.54
475.574	19.54
475.699	18.54
475.824	37.54
475.949	24.54
476.073	17.54
476.198	25.54
476.323	-4.46
476.448	9.54
476.573	5.54
476.698	20.54
476.823	10.54
476.947	21.54
477.072	16.54
477.197	15.54
477.322	19.54
477.447	7.54
477.572	16.54
477.697	13.54
477.821	8.54
477.946	28.54
478.071	25.54
478.196	28.54
478.321	26.54
478.445	3.54
478.57	12.54
478.695	20.54
478.82	16.54
478.945	26.54
479.069	17.54
479.194	-0.46
479.319	18.54
479.444	25.54
479.569	-0.46
479.693	6.54
479.818	9.54
479.943	24.54
480.068	33.54
480.192	37.54
480.317	25.54
480.442	21.54
480.567	4.54
480.691	19.54
480.816	7.54
480.941	11.54
481.066	26.54
481.19	27.54
481.315	21.54
481.44	10.54
481.564	19.54
481.689	21.54
481.814	21.54
481.938	14.54
482.063	8.54
482.188	-0.46
482.313	36.54
482.437	21.54
482.562	25.54
482.687	42.54
482.811	25.54
482.936	27.54
483.061	25.54
483.185	24.54
483.31	23.54
483.435	44.54
483.559	31.54
483.684	28.54
483.808	45.54
483.933	16.54
484.058	8.54
484.182	22.54
484.307	3.54
484.432	16.54
484.556	38.54
484.681	30.54
484.805	33.54
484.93	31.54
485.055	45.54
485.179	92.54
485.304	117.54
485.428	371.54
485.553	1281.54
485.678	1745.54
485.802	1627.54
485.927	1771.54
486.051	2662.54
486.176	1638.54
486.3	459.54
486.425	154.54
486.549	88.54
486.674	77.54
486.799	56.54
486.923	39.54
487.048	17.54
487.172	29.54
487.297	42.54
487.421	37.54
487.546	14.54
487.67	18.54
487.795	10.54
487.919	17.54
488.044	37.54
488.168	30.54
488.293	24.54
488.417	14.54
488.542	29.54
488.666	26.54
488.791	21.54
488.915	14.54
489.04	7.54
489.164	43.54
489.289	37.54
489.413	-3.46
489.538	33.54
489.662	28.54
489.786	30.54
489.911	14.54
490.035	26.54
490.16	5.54
490.284	17.54
490.409	-1.46
490.533	17.54
490.658	30.54
490.782	16.54
490.906	17.54
491.031	38.54
491.155	35.54
491.28	28.54
491.404	17.54
491.528	19.54
491.653	3.54
491.777	30.54
491.902	20.54
492.026	25.54
492.15	26.54
492.275	21.54
492.399	30.54
492.524	20.54
492.648	36.54
492.772	46.54
492.897	30.54
493.021	23.54
493.145	20.54
493.27	30.54
493.394	19.54
493.518	27.54
493.643	10.54
493.767	26.54
493.891	12.54
494.016	14.54
494.14	19.54
494.264	23.54
494.389	28.54
494.513	10.54
494.637	8.54
494.762	38.54
494.886	19.54
495.01	20.54
495.134	18.54
495.259	21.54
495.383	7.54
495.507	23.54
495.632	34.54
495.756	37.54
495.88	26.54
496.004	12.54
496.129	19.54
496.253	32.54
496.377	31.54
496.501	38.54
496.626	7.54
496.75	24.54
496.874	28.54
496.998	22.54
497.123	18.54
497.247	12.54
497.371	8.54
497.495	8.54
497.62	22.54
497.744	11.54
497.868	9.54
497.992	22.54
498.116	5.54
498.241	-2.46
498.365	13.54
498.489	24.54
498.613	33.54
498.737	15.54
498.862	21.54
498.986	13.54
499.11	17.54
499.234	25.54
499.358	13.54
499.482	11.54
499.607	16.54
499.731	15.54
499.855	19.54
499.979	12.54
500.103	12.54
500.227	28.54
500.351	9.54
500.476	27.54
500.6	30.54
500.724	17.54
500.848	4.54
500.972	19.54
501.096	12.54
501.22	44.54
501.344	27.54
501.469	9.54
501.593	21.54
501.717	20.54
501.841	13.54
501.965	12.54
502.089	10.54
502.213	17.54
502.337	19.54
502.461	11.54
502.585	2.54
502.709	10.54
502.834	-0.46
502.958	12.54
503.082	21.54
503.206	24.54
503.33	44.54
503.454	35.54
503.578	8.54
503.702	17.54
503.826	9.54
503.95	36.54
504.074	13.54
504.198	23.54
504.322	8.54
504.446	23.54
504.57	23.54
504.694	9.54
504.818	16.54
504.942	39.54
505.066	15.54
505.19	3.54
505.314	20.54
505.438	25.54
505.562	5.54
505.686	21.54
505.81	8.54
505.934	39.54
506.058	27.54
506.182	35.54
506.306	37.54
506.43	4.54
506.554	12.54
506.678	0.54
506.802	3.54
506.926	12.54
507.05	27.54
507.174	25.54
507.298	34.54
507.422	25.54
507.546	9.54
507.67	28.54
507.794	-0.46
507.918	17.54
508.042	41.54
508.165	10.54
508.289	14.54
508.413	15.54
508.537	21.54
508.661	37.54
508.785	25.54
508.909	13.54
509.033	0.54
509.157	9.54
509.281	19.54
509.405	15.54
509.528	21.54
509.652	16.54
509.776	-1.46
509.9	34.54
510.024	5.54
510.148	26.54
510.272	16.54
510.396	25.54
510.519	-2.46
510.643	30.54
510.767	24.54
510.891	11.54
511.015	8.54
511.139	4.54
511.263	9.54
511.386	10.54
511.51	9.54
511.634	12.54
511.758	-2.46
511.882	4.54
512.006	22.54
512.129	32.54
512.253	37.54
512.377	6.54
512.501	9.54
512.625	22.54
512.748	11.54
512.872	17.54
512.996	10.54
513.12	21.54
513.244	5.54
513.367	16.54
513.491	11.54
513.615	15.54
513.739	-3.46
513.862	11.54
513.986	5.54
514.11	28.54
514.234	13.54
514.358	14.54
514.481	28.54
514.605	15.54
514.729	32.54
514.853	21.54
514.976	12.54
515.1	25.54
515.224	26.54
515.348	23.54
515.471	4.54
515.595	20.54
515.719	-8.46
515.842	29.54
515.966	19.54
516.09	29.54
516.214	31.54
516.337	38.54
516.461	28.54
516.585	25.54
516.708	14.54
516.832	29.54
516.956	13.54
517.08	35.54
517.203	2.54
517.327	26.54
517.451	43.54
517.574	50.54
517.698	22.54
517.822	36.54
517.945	20.54
518.069	27.54
518.193	68.54
518.316	21.54
518.44	39.54
518.564	23.54
518.687	20.54
518.811	28.54
518.935	48.54
519.058	31.54
519.182	24.54
519.306	31.54
519.429	22.54
519.553	38.54
519.676	38.54
519.8	30.54
519.924	3.54
520.047	29.54
520.171	20.54
520.294	3.54
520.418	20.54
520.542	21.54
520.665	35.54
520.789	12.54
520.913	4.54
521.036	-11.46
521.16	16.54
521.283	15.54
521.407	10.54
521.53	12.54
521.654	3.54
521.778	32.54
521.901	19.54
522.025	25.54
522.148	13.54
522.272	17.54
522.395	-6.46
522.519	13.54
522.643	9.54
522.766	9.54
522.89	13.54
523.013	29.54
523.137	-1.46
523.26	1.54
523.384	19.54
523.507	23.54
523.631	25.54
523.754	6.54
523.878	10.54
524.002	10.54
524.125	16.54
524.249	-0.46
524.372	17.54
524.496	8.54
524.619	19.54
524.743	23.54
524.866	5.54
524.99	26.54
525.113	4.54
525.237	11.54
525.36	11.54
525.484	23.54
525.607	13.54
525.731	15.54
525.854	24.54
525.978	28.54
526.101	21.54
526.224	10.54
526.348	10.54
526.471	3.54
526.595	21.54
526.718	10.54
526.842	26.54
526.965	33.54
527.089	16.54
527.212	15.54
527.336	22.54
527.459	31.54
527.582	21.54
527.706	27.54
527.829	31.54
527.953	18.54
528.076	-4.46
528.2	-2.46
528.323	32.54
528.446	24.54
528.57	12.54
528.693	19.54
528.817	14.54
528.94	40.54
529.064	36.54
529.187	-1.46
529.31	10.54
529.434	12.54
529.557	9.54
529.68	16.54
529.804	14.54
529.927	30.54
530.051	7.54
530.174	-7.46
530.297	14.54
530.421	25.54
530.544	39.54
530.668	21.54
530.791	1.54
530.914	36.54
531.038	24.54
531.161	16.54
531.284	-7.46
531.408	26.54
531.531	16.54
531.654	3.54
531.778	13.54
531.901	-2.46
532.024	8.54
532.148	-0.46
532.271	13.54
532.394	33.54
532.518	55.54
532.641	24.54
532.764	31.54
532.888	30.54
533.011	1.54
533.134	6.54
533.258	25.54
533.381	-2.46
533.504	14.54
533.628	8.54
533.751	15.54
533.874	9.54
533.997	21.54
534.121	8.54
534.244	9.54
534.367	17.54
534.491	22.54
534.614	10.54
534.737	22.54
534.86	16.54
534.984	11.54
535.107	10.54
535.23	20.54
535.354	13.54
535.477	10.54
535.6	9.54
535.723	18.54
535.847	7.54
535.97	11.54
536.093	13.54
536.216	19.54
536.34	14.54
536.463	4.54
536.586	30.54
536.709	19.54
536.833	25.54
536.956	15.54
537.079	-0.46
537.202	20.54
537.325	24.54
537.449	11.54
537.572	16.54
537.695	3.54
537.818	19.54
537.941	18.54
538.065	19.54
538.188	8.54
538.311	9.54
538.434	27.54
538.558	23.54
538.681	14.54
538.804	15.54
538.927	21.54
539.05	21.54
539.173	22.54
539.297	5.54
539.42	16.54
539.543	18.54
539.666	19.54
539.789	13.54
539.913	8.54
540.036	-1.46
540.159	8.54
540.282	9.54
540.405	6.54
540.528	14.54
540.651	24.54
540.775	7.54
540.898	-0.46
541.021	19.54
541.144	35.54
541.267	38.54
541.39	1.54
541.513	11.54
541.637	19.54
541.76	11.54
541.883	15.54
542.006	27.54
542.129	15.54
542.252	5.54
542.375	15.54
542.498	4.54
542.622	16.54
542.745	33.54
542.868	19.54
542.991	25.54
543.114	29.54
543.237	34.54
543.36	29.54
543.483	8.54
543.606	33.54
543.73	27.54
543.853	13.54
543.976	3.54
544.099	21.54
544.222	7.54
544.345	1.54
544.468	1.54
544.591	26.54
544.714	20.54
544.837	36.54
544.96	19.54
545.083	23.54
545.206	20.54
545.329	24.54
545.453	10.54
545.576	21.54
545.699	7.54
545.822	23.54
545.945	25.54
546.068	16.54
546.191	23.54
546.314	23.54
546.437	27.54
546.56	9.54
546.683	13.54
546.806	20.54
546.929	19.54
547.052	3.54
547.175	4.54
547.298	29.54
547.421	23.54
547.544	9.54
547.667	10.54
547.79	25.54
547.913	6.54
548.036	-0.46
548.159	5.54
548.282	10.54
548.405	10.54
548.528	15.54
548.651	-2.46
548.774	0.54
548.897	26.54
549.02	30.54
549.143	32.54
549.266	16.54
549.389	5.54
549.512	-8.46
549.635	31.54
549.758	30.54
549.881	5.54
550.004	8.54
550.127	18.54
550.25	14.54
550.373	-6.46
550.496	17.54
550.619	14.54
550.742	3.54
550.865	-6.46
550.988	15.54
551.111	11.54
551.234	19.54
551.356	6.54
551.479	-7.46
551.602	18.54
551.725	33.54
551.848	33.54
551.971	23.54
552.094	28.54
552.217	5.54
552.34	28.54
552.463	7.54
552.586	20.54
552.709	7.54
552.832	20.54
552.955	13.54
553.077	41.54
553.2	25.54
553.323	2.54
553.446	23.54
553.569	12.54
553.692	22.54
553.815	15.54
553.938	19.54
554.061	13.54
554.184	10.54
554.306	25.54
554.429	16.54
554.552	31.54
554.675	3.54
554.798	3.54
554.921	10.54
555.044	1.54
555.167	3.54
555.29	21.54
555.412	8.54
555.535	4.54
555.658	9.54
555.781	2.54
555.904	16.54
556.027	20.54
556.15	22.54
556.272	15.54
556.395	2.54
556.518	13.54
556.641	32.54
556.764	26.54
556.887	26.54
557.01	14.54
557.132	-5.46
557.255	8.54
557.378	21.54
557.501	14.54
557.624	12.54
557.747	21.54
557.869	4.54
557.992	28.54
558.115	13.54
558.238	11.54
558.361	27.54
558.483	39.54
558.606	18.54
558.729	-4.46
558.852	35.54
558.975	30.54
559.098	24.54
559.22	20.54
559.343	26.54
559.466	22.54
559.589	15.54
559.712	39.54
559.834	11.54
559.957	21.54
560.08	13.54
560.203	23.54
560.325	26.54
560.448	10.54
560.571	8.54
560.694	12.54
560.817	24.54
560.939	8.54
561.062	3.54
561.185	-2.46
561.308	-3.46
561.43	-3.46
561.553	15.54
561.676	35.54
561.799	29.54
561.921	4.54
562.044	15.54
562.167	-8.46
562.29	33.54
562.413	12.54
562.535	18.54
562.658	-0.46
562.781	13.54
562.903	8.54
563.026	0.54
563.149	24.54
563.272	6.54
563.394	7.54
563.517	-2.46
563.64	-7.46
563.763	23.54
563.885	15.54
564.008	12.54
564.131	23.54
564.254	2.54
564.376	15.54
564.499	-9.46
564.622	9.54
564.744	23.54
564.867	7.54
564.99	12.54
565.113	8.54
565.235	30.54
565.358	17.54
565.481	-0.46
565.603	7.54
565.726	3.54
565.849	15.54
565.971	1.54
566.094	1.54
566.217	5.54
566.34	16.54
566.462	13.54
566.585	24.54
566.708	39.54
566.83	16.54
566.953	15.54
567.076	6.54
567.198	21.54
567.321	12.54
567.444	24.54
567.566	-2.46
567.689	7.54
567.812	1.54
567.934	6.54
568.057	6.54
568.18	17.54
568.302	11.54
568.425	10.54
568.548	23.54
568.67	17.54
568.793	18.54
568.916	1.54
569.038	4.54
569.161	20.54
569.283	8.54
569.406	13.54
569.529	17.54
569.651	-7.46
569.774	-15.46
569.897	1.54
570.019	17.54
570.142	17.54
570.265	11.54
570.387	19.54
570.51	16.54
570.632	28.54
570.755	2.54
570.878	13.54
571	27.54
571.123	9.54
571.246	20.54
571.368	4.54
571.491	15.54
571.613	3.54
571.736	9.54
571.859	17.54
571.981	-7.46
572.104	9.54
572.226	24.54
572.349	-2.46
572.472	7.54
572.594	15.54
572.717	27.54
572.839	-1.46
572.962	8.54
573.085	12.54
573.207	16.54
573.33	7.54
573.452	15.54
573.575	32.54
573.697	8.54
573.82	13.54
573.943	-3.46
574.065	5.54
574.188	8.54
574.31	38.54
574.433	32.54
574.555	31.54
574.678	5.54
574.801	16.54
574.923	3.54
575.046	5.54
575.168	20.54
575.291	24.54
575.413	17.54
575.536	12.54
575.659	24.54
575.781	-8.46
575.904	19.54
576.026	17.54
576.149	4.54
576.271	24.54
576.394	19.54
576.516	14.54
576.639	22.54
576.761	-3.46
576.884	-2.46
577.007	4.54
577.129	27.54
577.252	25.54
577.374	33.54
577.497	4.54
577.619	8.54
577.742	2.54
577.864	21.54
577.987	15.54
578.109	22.54
578.232	12.54
578.354	43.54
578.477	23.54
578.599	17.54
578.722	15.54
578.844	-2.46
578.967	34.54
579.089	17.54
579.212	3.54
579.334	20.54
579.457	13.54
579.579	16.54
579.702	0.54
579.824	16.54
579.947	8.54
580.069	-1.46
580.192	-3.46
580.314	20.54
580.437	22.54
580.559	37.54
580.682	6.54
580.804	30.54
580.927	13.54
581.049	30.54
581.172	20.54
581.294	34.54
581.417	33.54
581.539	1.54
581.662	23.54
581.784	31.54
581.907	24.54
582.029	26.54
582.152	5.54
582.274	25.54
582.396	19.54
582.519	14.54
582.641	-0.46
582.764	1.54
582.886	22.54
583.009	10.54
583.131	17.54
583.254	-0.46
583.376	41.54
583.499	29.54
583.621	15.54
583.743	36.54
583.866	15.54
583.988	22.54
584.111	15.54
584.233	23.54
584.356	32.54
584.478	20.54
584.601	-5.46
584.723	7.54
584.845	35.54
584.968	9.54
585.09	-0.46
585.213	3.54
585.335	-5.46
585.458	14.54
585.58	15.54
585.702	34.54
585.825	19.54
585.947	14.54
586.07	-0.46
586.192	12.54
586.315	23.54
586.437	-2.46
586.559	-4.46
586.682	2.54
586.804	4.54
586.927	13.54
587.049	8.54
587.171	10.54
587.294	21.54
587.416	32.54
587.539	15.54
587.661	-2.46
587.783	1.54
587.906	26.54
588.028	4.54
588.151	17.54
588.273	26.54
588.395	25.54
588.518	22.54
588.64	14.54
588.763	17.54
588.885	12.54
589.007	28.54
589.13	-5.46
589.252	-10.46
589.375	29.54
589.497	26.54
589.619	18.54
589.742	23.54
589.864	37.54
589.986	22.54
590.109	13.54
590.231	-4.46
590.354	10.54
590.476	10.54
590.598	17.54
590.721	-5.46
590.843	14.54
590.965	21.54
591.088	15.54
591.21	3.54
591.332	14.54
591.455	-10.46
591.577	-4.46
591.7	4.54
591.822	22.54
591.944	27.54
592.067	20.54
592.189	13.54
592.311	11.54
592.434	27.54
592.556	27.54
592.678	17.54
592.801	18.54
592.923	33.54
593.045	10.54
593.168	23.54
593.29	24.54
593.412	24.54
593.535	12.54
593.657	4.54
593.779	8.54
593.902	27.54
594.024	14.54
594.146	35.54
594.269	16.54
594.391	3.54
594.513	15.54
594.636	10.54
594.758	13.54
594.88	21.54
595.003	38.54
595.125	21.54
595.247	17.54
595.37	-1.46
595.492	-6.46
595.614	26.54
595.737	17.54
595.859	15.54
595.981	17.54
596.104	9.54
596.226	15.54
596.348	12.54
596.471	9.54
596.593	20.54
596.715	8.54
596.838	16.54
596.96	21.54
597.082	11.54
597.204	15.54
597.327	19.54
597.449	17.54
597.571	9.54
597.694	15.54
597.816	15.54
597.938	23.54
598.061	11.54
598.183	-1.46
598.305	21.54
598.427	28.54
598.55	11.54
598.672	25.54
598.794	29.54
598.917	0.54
599.039	3.54
599.161	17.54
599.283	13.54
599.406	18.54
599.528	25.54
599.65	45.54
599.773	15.54
599.895	48.54
600.017	51.54
600.139	15.54
600.262	3.54
600.384	17.54
600.506	6.54
600.628	22.54
600.751	28.54
600.873	2.54
600.995	21.54
601.118	35.54
601.24	11.54
601.362	19.54
601.484	11.54
601.607	20.54
601.729	-0.46
601.851	13.54
601.973	26.54
602.096	29.54
602.218	38.54
602.34	26.54
602.462	24.54
602.585	22.54
602.707	3.54
602.829	26.54
602.951	15.54
603.074	-4.46
603.196	30.54
603.318	13.54
603.44	35.54
603.563	31.54
603.685	1.54
603.807	28.54
603.929	18.54
604.052	19.54
604.174	28.54
604.296	7.54
604.418	4.54
604.541	28.54
604.663	-2.46
604.785	2.54
604.907	12.54
605.03	-1.46
605.152	56.54
605.274	19.54
605.396	25.54
605.519	23.54
605.641	26.54
605.763	19.54
605.885	22.54
606.008	11.54
606.13	25.54
606.252	21.54
606.374	-8.46
606.496	7.54
606.619	19.54
606.741	11.54
606.863	27.54
606.985	41.54
607.108	37.54
607.23	7.54
607.352	19.54
607.474	8.54
607.596	13.54
607.719	-11.46
607.841	23.54
607.963	19.54
608.085	16.54
608.207	41.54
608.33	23.54
608.452	10.54
608.574	4.54
608.696	16.54
608.819	-3.46
608.941	25.54
609.063	13.54
609.185	28.54
609.307	0.54
609.43	15.54
609.552	24.54
609.674	-0.46
609.796	16.54
609.918	39.54
610.041	31.54
610.163	22.54
610.285	32.54
610.407	24.54
610.529	-8.46
610.652	3.54
610.774	28.54
610.896	9.54
611.018	19.54
611.14	21.54
611.263	-9.46
611.385	7.54
611.507	21.54
611.629	4.54
611.751	11.54
611.873	50.54
611.996	0.54
612.118	24.54
612.24	8.54
612.362	23.54
612.484	31.54
612.607	21.54
612.729	19.54
612.851	24.54
612.973	16.54
613.095	-5.46
613.218	12.54
613.34	33.54
613.462	6.54
613.584	29.54
613.706	19.54
613.828	29.54
613.951	12.54
614.073	20.54
614.195	8.54
614.317	29.54
614.439	26.54
614.561	12.54
614.684	32.54
614.806	35.54
614.928	14.54
615.05	19.54
615.172	15.54
615.294	14.54
615.417	17.54
615.539	6.54
615.661	1.54
615.783	32.54
615.905	38.54
616.027	69.54
616.15	96.54
616.272	71.54
616.394	57.54
616.516	36.54
616.638	31.54
616.76	20.54
616.883	26.54
617.005	20.54
617.127	7.54
617.249	15.54
617.371	23.54
617.493	11.54
617.615	11.54
617.738	5.54
617.86	29.54
617.982	16.54
618.104	-3.46
618.226	8.54
618.348	11.54
618.471	19.54
618.593	11.54
618.715	-2.46
618.837	12.54
618.959	9.54
619.081	15.54
619.203	27.54
619.326	27.54
619.448	21.54
619.57	4.54
619.692	3.54
619.814	20.54
619.936	27.54
620.058	28.54
620.181	31.54
620.303	20.54
620.425	13.54
620.547	2.54
620.669	14.54
620.791	19.54
620.913	15.54
621.036	4.54
621.158	23.54
621.28	24.54
621.402	-0.46
621.524	4.54
621.646	9.54
621.768	-9.46
621.891	-3.46
622.013	5.54
622.135	9.54
622.257	9.54
622.379	9.54
622.501	2.54
622.623	10.54
622.745	4.54
622.868	4.54
622.99	10.54
623.112	9.54
623.234	6.54
623.356	17.54
623.478	9.54
623.6	1.54
623.722	2.54
623.845	13.54
623.967	19.54
624.089	13.54
624.211	29.54
624.333	23.54
624.455	10.54
624.577	19.54
624.699	21.54
624.822	16.54
624.944	13.54
625.066	5.54
625.188	-7.46
625.31	9.54
625.432	35.54
625.554	-0.46
625.676	23.54
625.799	13.54
625.921	14.54
626.043	19.54
626.165	4.54
626.287	-19.46
626.409	25.54
626.531	9.54
626.653	-0.46
626.775	12.54
626.898	10.54
627.02	23.54
627.142	21.54
627.264	20.54
627.386	7.54
627.508	13.54
627.63	11.54
627.752	22.54
627.874	9.54
627.997	14.54
628.119	21.54
628.241	26.54
628.363	29.54
628.485	28.54
628.607	7.54
628.729	4.54
628.851	14.54
628.973	28.54
629.096	4.54
629.218	21.54
629.34	21.54
629.462	11.54
629.584	13.54
629.706	24.54
629.828	22.54
629.95	22.54
630.072	7.54
630.195	-4.46
630.317	8.54
630.439	11.54
630.561	24.54
630.683	4.54
630.805	27.54
630.927	14.54
631.049	9.54
631.171	-3.46
631.293	22.54
631.416	21.54
631.538	17.54
631.66	6.54
631.782	19.54
631.904	24.54
632.026	21.54
632.148	14.54
632.27	15.54
632.392	20.54
632.514	22.54
632.637	24.54
632.759	9.54
632.881	-2.46
633.003	-8.46
633.125	-5.46
633.247	4.54
633.369	14.54
633.491	12.54
633.613	9.54
633.735	6.54
633.858	7.54
633.98	27.54
634.102	-14.46
634.224	10.54
634.346	25.54
634.468	19.54
634.59	12.54
634.712	10.54
634.834	10.54
634.956	3.54
635.078	6.54
635.201	-3.46
635.323	16.54
635.445	-3.46
635.567	2.54
635.689	25.54
635.811	8.54
635.933	5.54
636.055	1.54
636.177	0.54
636.299	31.54
636.421	-2.46
636.544	-10.46
636.666	33.54
636.788	21.54
636.91	24.54
637.032	-3.46
637.154	18.54
637.276	41.54
637.398	25.54
637.52	13.54
637.642	6.54
637.764	7.54
637.887	7.54
638.009	19.54
638.131	9.54
638.253	0.54
638.375	-0.46
638.497	13.54
638.619	-1.46
638.741	14.54
638.863	-0.46
638.985	-2.46
639.107	6.54
639.23	10.54
639.352	10.54
639.474	10.54
639.596	15.54
639.718	3.54
639.84	23.54
639.962	10.54
640.084	25.54
640.206	17.54
640.328	3.54
640.45	20.54
640.573	13.54
640.695	16.54
640.817	1.54
640.939	21.54
641.061	12.54
641.183	13.54
641.305	21.54
641.427	7.54
641.549	15.54
641.671	-2.46
641.793	3.54
641.915	31.54
642.038	21.54
642.16	16.54
642.282	5.54
642.404	6.54
642.526	6.54
642.648	13.54
642.77	5.54
642.892	-10.46
643.014	25.54
643.136	12.54
643.258	11.54
643.381	45.54
643.503	40.54
643.625	4.54
643.747	-3.46
643.869	1.54
643.991	13.54
644.113	15.54
644.235	19.54
644.357	8.54
644.479	-2.46
644.601	13.54
644.723	9.54
644.846	24.54
644.968	15.54
645.09	20.54
645.212	4.54
645.334	28.54
645.456	33.54
645.578	17.54
645.7	4.54
645.822	10.54
645.944	14.54
646.066	12.54
646.188	8.54
646.311	51.54
646.433	19.54
646.555	45.54
646.677	39.54
646.799	48.54
646.921	38.54
647.043	30.54
647.165	14.54
647.287	3.54
647.409	13.54
647.531	27.54
647.654	-14.46
647.776	16.54
647.898	24.54
648.02	14.54
648.142	10.54
648.264	11.54
648.386	3.54
648.508	1.54
648.63	-0.46
648.752	15.54
648.874	4.54
648.997	23.54
649.119	37.54
649.241	2.54
649.363	36.54
649.485	9.54
649.607	-6.46
649.729	5.54
649.851	12.54
649.973	-0.46
650.095	15.54
650.217	-1.46
650.34	9.54
650.462	24.54
650.584	11.54
650.706	23.54
650.828	17.54
650.95	-5.46
651.072	13.54
651.194	-0.46
651.316	16.54
651.438	10.54
651.56	6.54
651.683	13.54
651.805	12.54
651.927	0.54
652.049	-2.46
652.171	7.54
652.293	-3.46
652.415	9.54
652.537	-5.46
652.659	-4.46
652.781	16.54
652.903	23.54
653.026	33.54
653.148	18.54
653.27	17.54
653.392	6.54
653.514	7.54
653.636	9.54
653.758	11.54
653.88	2.54
654.002	3.54
654.124	24.54
654.247	10.54
654.369	8.54
654.491	10.54
654.613	11.54
654.735	6.54
654.857	39.54
654.979	19.54
655.101	34.54
655.223	47.54
655.345	13.54
655.468	14.54
655.59	8.54
655.712	22.54
655.834	35.54
655.956	45.54
656.078	29.54
656.2	42.54
656.322	24.54
656.444	7.54
656.566	56.54
656.689	58.54
656.811	62.54
656.933	85.54
657.055	89.54
657.177	152.54
657.299	239.54
657.421	486.54
657.543	1855.54
657.665	12521.54
657.787	15165.54
657.91	15255.54
658.032	15666.54
658.154	4640.54
658.276	3540.54
658.398	1181.54
658.52	1028.54
658.642	489.54
658.764	581.54
658.886	260.54
659.009	395.54
659.131	198.54
659.253	326.54
659.375	172.54
659.497	247.54
659.619	130.54
659.741	215.54
659.863	100.54
659.985	160.54
660.108	93.54
660.23	168.54
660.352	94.54
660.474	147.54
660.596	79.54
660.718	131.54
660.84	74.54
660.962	121.54
661.084	48.54
661.207	108.54
661.329	55.54
661.451	85.54
661.573	67.54
661.695	100.54
661.817	51.54
661.939	107.54
662.061	73.54
662.184	78.54
662.306	33.54
662.428	81.54
662.55	58.54
662.672	71.54
662.794	56.54
662.916	79.54
663.038	32.54
663.161	91.54
663.283	46.54
663.405	76.54
663.527	20.54
663.649	73.54
663.771	35.54
663.893	65.54
664.015	40.54
664.138	49.54
664.26	26.54
664.382	57.54
664.504	28.54
664.626	30.54
664.748	36.54
664.87	44.54
664.992	42.54
665.115	59.54
665.237	27.54
665.359	47.54
665.481	31.54
665.603	40.54
665.725	30.54
665.847	47.54
665.97	33.54
666.092	44.54
666.214	29.54
666.336	38.54
666.458	26.54
666.58	49.54
666.702	9.54
666.825	36.54
666.947	14.54
667.069	42.54
667.191	27.54
667.313	45.54
667.435	7.54
667.557	17.54
667.68	20.54
667.802	30.54
667.924	17.54
668.046	38.54
668.168	33.54
668.29	63.54
668.412	11.54
668.535	30.54
668.657	31.54
668.779	31.54
668.901	25.54
669.023	54.54
669.145	13.54
669.267	41.54
669.39	17.54
669.512	34.54
669.634	11.54
669.756	20.54
669.878	15.54
670	38.54
670.123	16.54
670.245	40.54
670.367	24.54
670.489	31.54
670.611	10.54
670.733	18.54
670.856	20.54
670.978	35.54
671.1	30.54
671.222	49.54
671.344	15.54
671.466	27.54
671.589	7.54
671.711	16.54
671.833	7.54
671.955	38.54
672.077	5.54
672.199	28.54
672.322	47.54
672.444	31.54
672.566	31.54
672.688	21.54
672.81	17.54
672.932	54.54
673.055	2.54
673.177	8.54
673.299	25.54
673.421	0.54
673.543	7.54
673.665	28.54
673.788	23.54
673.91	18.54
674.032	4.54
674.154	29.54
674.276	13.54
674.399	29.54
674.521	7.54
674.643	12.54
674.765	13.54
674.887	47.54
675.009	16.54
675.132	21.54
675.254	15.54
675.376	4.54
675.498	9.54
675.62	26.54
675.743	21.54
675.865	50.54
675.987	-1.46
676.109	23.54
676.231	19.54
676.354	37.54
676.476	-9.46
676.598	39.54
676.72	29.54
676.842	28.54
676.965	12.54
677.087	27.54
677.209	15.54
677.331	24.54
677.453	14.54
677.576	15.54
677.698	24.54
677.82	29.54
677.942	8.54
678.064	18.54
678.187	24.54
678.309	25.54
678.431	4.54
678.553	23.54
678.675	27.54
678.798	14.54
678.92	9.54
679.042	25.54
679.164	5.54
679.286	26.54
679.409	6.54
679.531	7.54
679.653	14.54
679.775	8.54
679.898	-1.46
680.02	31.54
680.142	1.54
680.264	31.54
680.386	-2.46
680.509	22.54
680.631	16.54
680.753	20.54
680.875	6.54
680.998	24.54
681.12	17.54
681.242	23.54
681.364	3.54
681.486	16.54
681.609	15.54
681.731	3.54
681.853	9.54
681.975	-0.46
682.098	23.54
682.22	38.54
682.342	9.54
682.464	32.54
682.587	9.54
682.709	12.54
682.831	6.54
682.953	27.54
683.076	16.54
683.198	4.54
683.32	19.54
683.442	20.54
683.565	25.54
683.687	8.54
683.809	8.54
683.931	13.54
684.054	17.54
684.176	29.54
684.298	18.54
684.42	-2.46
684.543	3.54
684.665	12.54
684.787	19.54
684.909	7.54
685.032	19.54
685.154	5.54
685.276	19.54
685.398	4.54
685.521	-1.46
685.643	19.54
685.765	16.54
685.887	17.54
686.01	1.54
686.132	14.54
686.254	19.54
686.377	36.54
686.499	42.54
686.621	35.54
686.743	40.54
686.866	16.54
686.988	39.54
687.11	24.54
687.232	22.54
687.355	-0.46
687.477	7.54
687.599	24.54
687.722	-3.46
687.844	15.54
687.966	5.54
688.088	25.54
688.211	40.54
688.333	37.54
688.455	25.54
688.578	24.54
688.7	20.54
688.822	8.54
688.944	-8.46
689.067	45.54
689.189	16.54
689.311	-10.46
689.434	1.54
689.556	10.54
689.678	4.54
689.801	19.54
689.923	-0.46
690.045	28.54
690.167	27.54
690.29	38.54
690.412	25.54
690.534	34.54
690.657	11.54
690.779	16.54
690.901	19.54
691.024	20.54
691.146	16.54
691.268	26.54
691.391	13.54
691.513	20.54
691.635	28.54
691.758	41.54
691.88	28.54
692.002	3.54
692.125	-0.46
692.247	9.54
692.369	13.54
692.492	4.54
692.614	20.54
692.736	12.54
692.859	22.54
692.981	13.54
693.103	3.54
693.226	17.54
693.348	33.54
693.47	22.54
693.593	15.54
693.715	-0.46
693.837	-3.46
693.96	11.54
694.082	5.54
694.204	12.54
694.327	-6.46
694.449	-6.46
694.571	12.54
694.694	32.54
694.816	13.54
694.938	9.54
695.061	23.54
695.183	24.54
695.305	21.54
695.428	17.54
695.55	15.54
695.672	10.54
695.795	15.54
695.917	16.54
696.04	-5.46
696.162	13.54
696.284	11.54
696.407	16.54
696.529	-4.46
696.651	18.54
696.774	-0.46
696.896	9.54
697.019	3.54
697.141	10.54
697.263	8.54
697.386	1.54
697.508	4.54
697.63	23.54
697.753	11.54
697.875	2.54
697.998	1.54
698.12	6.54
698.242	10.54
698.365	-3.46
698.487	11.54
698.61	21.54
698.732	14.54
698.854	20.54
698.977	2.54
699.099	12.54
699.221	7.54
699.344	17.54
699.466	9.54
699.589	19.54
699.711	-0.46
699.834	25.54
699.956	11.54
700.078	12.54
700.201	3.54
700.323	34.54
700.446	14.54
700.568	11.54
700.69	20.54
700.813	26.54
700.935	6.54
701.058	4.54
701.18	12.54
701.302	5.54
701.425	-3.46
701.547	17.54
701.67	-2.46
701.792	20.54
701.915	5.54
702.037	7.54
702.159	7.54
702.282	11.54
702.404	20.54
702.527	18.54
702.649	24.54
702.772	16.54
702.894	10.54
703.017	-8.46
703.139	8.54
703.261	38.54
703.384	22.54
703.506	-1.46
703.629	-1.46
703.751	19.54
703.874	12.54
703.996	11.54
704.119	-9.46
704.241	8.54
704.364	-0.46
704.486	12.54
704.608	10.54
704.731	-0.46
704.853	12.54
704.976	13.54
705.098	1.54
705.221	6.54
705.343	21.54
705.466	16.54
705.588	28.54
705.711	25.54
705.833	15.54
705.956	3.54
706.078	10.54
706.201	4.54
706.323	11.54
706.446	7.54
