Data from LowRes_H2_15_26_11_07_2024_HR4C61881__87__15-28-22-336.txt Node

Date: Thu Nov 07 15:28:22 EST 2024
User: crc00042
Spectrometer: HR4C6188
Trigger mode: 4
Integration Time (sec): 1.000000E-1
Scans to average: 1
Electric dark correction enabled: true
Nonlinearity correction enabled: false
Boxcar width: 0
XAxis mode: Wavelengths
Number of Pixels in Spectrum: 3648
>>>>>Begin Spectral Data<<<<<
245.66	-110.46
245.797	-110.46
245.934	-110.46
246.071	-76.46
246.208	6.54
246.344	-4.46
246.481	-8.46
246.618	-11.46
246.755	25.54
246.892	-9.46
247.029	-11.46
247.165	-1.46
247.302	15.54
247.439	-6.46
247.576	8.54
247.713	-10.46
247.849	28.54
247.986	-14.46
248.123	0.54
248.26	-11.46
248.396	22.54
248.533	0.54
248.67	0.54
248.806	8.54
248.943	-16.46
249.08	-11.46
249.216	10.54
249.353	-16.46
249.49	-19.46
249.626	6.54
249.763	1.54
249.9	-6.46
250.036	0.54
250.173	1.54
250.309	5.54
250.446	12.54
250.582	-8.46
250.719	0.54
250.856	-3.46
250.992	-3.46
251.129	5.54
251.265	6.54
251.402	-3.46
251.538	8.54
251.675	1.54
251.811	24.54
251.948	14.54
252.084	10.54
252.221	2.54
252.357	10.54
252.493	14.54
252.63	-8.46
252.766	25.54
252.903	-2.46
253.039	-13.46
253.175	2.54
253.312	-7.46
253.448	-16.46
253.585	-18.46
253.721	6.54
253.857	-18.46
253.994	20.54
254.13	1.54
254.266	21.54
254.403	-2.46
254.539	1.54
254.675	-0.46
254.811	3.54
254.948	-4.46
255.084	-9.46
255.22	-19.46
255.356	-11.46
255.493	-6.46
255.629	21.54
255.765	22.54
255.901	7.54
256.037	6.54
256.174	19.54
256.31	-4.46
256.446	-9.46
256.582	-7.46
256.718	20.54
256.854	29.54
256.991	2.54
257.127	12.54
257.263	-6.46
257.399	15.54
257.535	9.54
257.671	8.54
257.807	-9.46
257.943	9.54
258.079	-10.46
258.215	-17.46
258.351	22.54
258.487	13.54
258.623	38.54
258.759	14.54
258.895	-1.46
259.031	-4.46
259.167	-2.46
259.303	14.54
259.439	13.54
259.575	-6.46
259.711	-20.46
259.847	-18.46
259.983	19.54
260.119	14.54
260.255	8.54
260.391	26.54
260.527	14.54
260.663	20.54
260.799	4.54
260.934	-3.46
261.07	2.54
261.206	-10.46
261.342	-0.46
261.478	18.54
261.614	6.54
261.749	17.54
261.885	5.54
262.021	-10.46
262.157	21.54
262.293	2.54
262.428	-1.46
262.564	-7.46
262.7	-11.46
262.836	-13.46
262.971	13.54
263.107	0.54
263.243	12.54
263.378	19.54
263.514	-10.46
263.65	6.54
263.785	-9.46
263.921	-7.46
264.057	-7.46
264.192	3.54
264.328	1.54
264.464	1.54
264.599	2.54
264.735	28.54
264.871	-6.46
265.006	-3.46
265.142	-1.46
265.277	-6.46
265.413	10.54
265.548	27.54
265.684	27.54
265.819	17.54
265.955	-31.46
266.091	-10.46
266.226	-5.46
266.362	5.54
266.497	18.54
266.633	0.54
266.768	-15.46
266.903	8.54
267.039	6.54
267.174	20.54
267.31	-13.46
267.445	-18.46
267.581	-6.46
267.716	18.54
267.851	8.54
267.987	28.54
268.122	30.54
268.258	-8.46
268.393	-14.46
268.528	6.54
268.664	1.54
268.799	-12.46
268.934	1.54
269.07	-12.46
269.205	-1.46
269.34	29.54
269.476	-11.46
269.611	-12.46
269.746	26.54
269.881	9.54
270.017	12.54
270.152	-0.46
270.287	-0.46
270.422	4.54
270.558	-15.46
270.693	-4.46
270.828	9.54
270.963	11.54
271.098	-6.46
271.234	1.54
271.369	27.54
271.504	-0.46
271.639	-0.46
271.774	-7.46
271.909	-4.46
272.045	-11.46
272.18	2.54
272.315	-24.46
272.45	3.54
272.585	0.54
272.72	8.54
272.855	-7.46
272.99	20.54
273.125	-7.46
273.26	-25.46
273.395	-8.46
273.53	-11.46
273.665	20.54
273.8	2.54
273.935	-3.46
274.07	12.54
274.205	15.54
274.34	15.54
274.475	13.54
274.61	27.54
274.745	-4.46
274.88	6.54
275.015	-12.46
275.15	5.54
275.285	13.54
275.42	2.54
275.555	4.54
275.69	8.54
275.825	15.54
275.959	14.54
276.094	10.54
276.229	-1.46
276.364	-6.46
276.499	13.54
276.634	12.54
276.768	19.54
276.903	-1.46
277.038	22.54
277.173	2.54
277.308	-5.46
277.442	-20.46
277.577	2.54
277.712	4.54
277.847	-20.46
277.981	10.54
278.116	-10.46
278.251	-3.46
278.386	-2.46
278.52	18.54
278.655	-4.46
278.79	20.54
278.924	9.54
279.059	5.54
279.194	-0.46
279.328	38.54
279.463	20.54
279.598	9.54
279.732	23.54
279.867	14.54
280.001	0.54
280.136	-9.46
280.271	15.54
280.405	26.54
280.54	-3.46
280.674	-13.46
280.809	21.54
280.943	5.54
281.078	-17.46
281.213	22.54
281.347	17.54
281.482	-3.46
281.616	7.54
281.751	-4.46
281.885	-13.46
282.02	11.54
282.154	7.54
282.288	-21.46
282.423	-8.46
282.557	-9.46
282.692	-2.46
282.826	6.54
282.961	26.54
283.095	-11.46
283.229	-0.46
283.364	-8.46
283.498	-4.46
283.633	29.54
283.767	0.54
283.901	-24.46
284.036	-7.46
284.17	-19.46
284.304	-4.46
284.439	4.54
284.573	0.54
284.707	30.54
284.842	0.54
284.976	-5.46
285.11	3.54
285.244	4.54
285.379	41.54
285.513	3.54
285.647	14.54
285.781	13.54
285.916	17.54
286.05	-6.46
286.184	41.54
286.318	12.54
286.453	-2.46
286.587	-10.46
286.721	-3.46
286.855	3.54
286.989	10.54
287.123	4.54
287.258	-16.46
287.392	7.54
287.526	5.54
287.66	-1.46
287.794	-10.46
287.928	-0.46
288.062	23.54
288.196	3.54
288.33	-3.46
288.464	18.54
288.598	5.54
288.733	1.54
288.867	6.54
289.001	7.54
289.135	0.54
289.269	0.54
289.403	-0.46
289.537	14.54
289.671	11.54
289.805	-10.46
289.939	21.54
290.073	6.54
290.207	33.54
290.34	7.54
290.474	4.54
290.608	-3.46
290.742	-4.46
290.876	0.54
291.01	2.54
291.144	17.54
291.278	36.54
291.412	5.54
291.546	17.54
291.679	3.54
291.813	5.54
291.947	-1.46
292.081	13.54
292.215	-4.46
292.349	14.54
292.482	11.54
292.616	4.54
292.75	3.54
292.884	13.54
293.018	4.54
293.151	-17.46
293.285	14.54
293.419	-3.46
293.553	-4.46
293.686	-4.46
293.82	10.54
293.954	14.54
294.088	25.54
294.221	5.54
294.355	-16.46
294.489	2.54
294.622	-9.46
294.756	-16.46
294.89	3.54
295.023	1.54
295.157	2.54
295.291	2.54
295.424	15.54
295.558	-4.46
295.691	-7.46
295.825	2.54
295.959	6.54
296.092	-8.46
296.226	-10.46
296.359	25.54
296.493	17.54
296.627	14.54
296.76	1.54
296.894	3.54
297.027	12.54
297.161	-4.46
297.294	-24.46
297.428	-0.46
297.561	32.54
297.695	-6.46
297.828	-5.46
297.962	2.54
298.095	-14.46
298.229	7.54
298.362	-6.46
298.495	0.54
298.629	2.54
298.762	11.54
298.896	3.54
299.029	-20.46
299.162	-3.46
299.296	-9.46
299.429	2.54
299.563	3.54
299.696	-1.46
299.829	4.54
299.963	8.54
300.096	8.54
300.229	14.54
300.363	3.54
300.496	9.54
300.629	-22.46
300.763	6.54
300.896	-7.46
301.029	7.54
301.162	7.54
301.296	-12.46
301.429	5.54
301.562	-15.46
301.695	18.54
301.829	9.54
301.962	26.54
302.095	-0.46
302.228	-9.46
302.362	4.54
302.495	-12.46
302.628	-4.46
302.761	14.54
302.894	-4.46
303.027	9.54
303.161	2.54
303.294	-19.46
303.427	11.54
303.56	3.54
303.693	2.54
303.826	5.54
303.959	11.54
304.092	11.54
304.225	4.54
304.359	-2.46
304.492	11.54
304.625	-15.46
304.758	-5.46
304.891	-18.46
305.024	-2.46
305.157	-14.46
305.29	-11.46
305.423	4.54
305.556	22.54
305.689	5.54
305.822	6.54
305.955	-2.46
306.088	-0.46
306.221	9.54
306.354	4.54
306.487	-26.46
306.62	-20.46
306.752	6.54
306.885	19.54
307.018	0.54
307.151	4.54
307.284	9.54
307.417	-6.46
307.55	6.54
307.683	1.54
307.816	-3.46
307.948	-7.46
308.081	8.54
308.214	19.54
308.347	21.54
308.48	8.54
308.613	-2.46
308.745	2.54
308.878	-6.46
309.011	-2.46
309.144	11.54
309.277	-12.46
309.409	13.54
309.542	3.54
309.675	37.54
309.808	24.54
309.94	25.54
310.073	-17.46
310.206	16.54
310.339	31.54
310.471	-11.46
310.604	12.54
310.737	-10.46
310.869	7.54
311.002	9.54
311.135	-7.46
311.267	-16.46
311.4	-11.46
311.533	16.54
311.665	-0.46
311.798	-3.46
311.93	-10.46
312.063	5.54
312.196	20.54
312.328	15.54
312.461	1.54
312.593	5.54
312.726	8.54
312.859	12.54
312.991	-2.46
313.124	-18.46
313.256	10.54
313.389	14.54
313.521	-24.46
313.654	-11.46
313.786	-11.46
313.919	-5.46
314.051	-6.46
314.184	11.54
314.316	0.54
314.449	-19.46
314.581	4.54
314.714	-5.46
314.846	0.54
314.978	-6.46
315.111	-3.46
315.243	13.54
315.376	1.54
315.508	12.54
315.641	12.54
315.773	24.54
315.905	6.54
316.038	-3.46
316.17	2.54
316.302	17.54
316.435	1.54
316.567	-6.46
316.699	14.54
316.832	-10.46
316.964	-13.46
317.096	3.54
317.229	10.54
317.361	-15.46
317.493	-0.46
317.625	-13.46
317.758	1.54
317.89	16.54
318.022	6.54
318.155	-24.46
318.287	7.54
318.419	-18.46
318.551	12.54
318.683	-3.46
318.816	-12.46
318.948	-2.46
319.08	-4.46
319.212	7.54
319.344	29.54
319.477	-6.46
319.609	32.54
319.741	14.54
319.873	2.54
320.005	-14.46
320.137	-10.46
320.269	3.54
320.401	14.54
320.534	-9.46
320.666	-23.46
320.798	-18.46
320.93	-8.46
321.062	-4.46
321.194	-5.46
321.326	-5.46
321.458	6.54
321.59	-1.46
321.722	-3.46
321.854	9.54
321.986	3.54
322.118	5.54
322.25	-17.46
322.382	1.54
322.514	-25.46
322.646	-11.46
322.778	-12.46
322.91	-9.46
323.042	-3.46
323.174	12.54
323.306	-9.46
323.438	-23.46
323.57	-13.46
323.702	11.54
323.834	-1.46
323.966	-6.46
324.097	13.54
324.229	11.54
324.361	8.54
324.493	15.54
324.625	-9.46
324.757	12.54
324.889	2.54
325.021	8.54
325.152	25.54
325.284	16.54
325.416	-2.46
325.548	11.54
325.68	-1.46
325.811	37.54
325.943	6.54
326.075	-15.46
326.207	0.54
326.339	-8.46
326.47	-4.46
326.602	11.54
326.734	12.54
326.866	22.54
326.997	-6.46
327.129	-11.46
327.261	-23.46
327.392	8.54
327.524	2.54
327.656	12.54
327.787	9.54
327.919	10.54
328.051	-2.46
328.182	15.54
328.314	29.54
328.446	-9.46
328.577	12.54
328.709	-1.46
328.841	-3.46
328.972	-1.46
329.104	-17.46
329.235	1.54
329.367	1.54
329.499	-22.46
329.63	10.54
329.762	17.54
329.893	23.54
330.025	-0.46
330.156	-14.46
330.288	28.54
330.419	23.54
330.551	13.54
330.683	12.54
330.814	-12.46
330.946	6.54
331.077	-12.46
331.208	-0.46
331.34	-12.46
331.471	-12.46
331.603	-11.46
331.734	-22.46
331.866	0.54
331.997	7.54
332.129	-13.46
332.26	6.54
332.392	13.54
332.523	-8.46
332.654	-16.46
332.786	-2.46
332.917	-4.46
333.048	3.54
333.18	19.54
333.311	-2.46
333.443	-8.46
333.574	5.54
333.705	35.54
333.837	0.54
333.968	4.54
334.099	20.54
334.231	2.54
334.362	-10.46
334.493	15.54
334.624	21.54
334.756	10.54
334.887	-4.46
335.018	-11.46
335.15	22.54
335.281	5.54
335.412	19.54
335.543	0.54
335.675	14.54
335.806	2.54
335.937	5.54
336.068	10.54
336.199	37.54
336.331	4.54
336.462	-8.46
336.593	19.54
336.724	16.54
336.855	-13.46
336.986	-6.46
337.118	4.54
337.249	-2.46
337.38	10.54
337.511	2.54
337.642	9.54
337.773	-4.46
337.904	5.54
338.035	20.54
338.166	11.54
338.298	11.54
338.429	4.54
338.56	14.54
338.691	19.54
338.822	9.54
338.953	14.54
339.084	14.54
339.215	14.54
339.346	-1.46
339.477	4.54
339.608	-3.46
339.739	7.54
339.87	6.54
340.001	-10.46
340.132	19.54
340.263	10.54
340.394	4.54
340.525	-0.46
340.656	4.54
340.787	-9.46
340.918	15.54
341.049	5.54
341.179	0.54
341.31	13.54
341.441	22.54
341.572	16.54
341.703	5.54
341.834	-1.46
341.965	10.54
342.096	4.54
342.227	22.54
342.357	6.54
342.488	18.54
342.619	6.54
342.75	9.54
342.881	-12.46
343.012	22.54
343.142	22.54
343.273	-3.46
343.404	13.54
343.535	41.54
343.666	31.54
343.796	7.54
343.927	5.54
344.058	28.54
344.189	13.54
344.319	-11.46
344.45	21.54
344.581	-2.46
344.712	-19.46
344.842	-13.46
344.973	-2.46
345.104	16.54
345.234	18.54
345.365	-9.46
345.496	2.54
345.626	11.54
345.757	5.54
345.888	-0.46
346.018	18.54
346.149	6.54
346.28	17.54
346.41	-5.46
346.541	24.54
346.672	-2.46
346.802	-7.46
346.933	-8.46
347.063	-7.46
347.194	-15.46
347.325	17.54
347.455	27.54
347.586	-5.46
347.716	-12.46
347.847	8.54
347.977	20.54
348.108	21.54
348.238	15.54
348.369	3.54
348.499	7.54
348.63	6.54
348.76	0.54
348.891	4.54
349.021	4.54
349.152	14.54
349.282	29.54
349.413	8.54
349.543	15.54
349.674	2.54
349.804	7.54
349.935	-3.46
350.065	4.54
350.196	3.54
350.326	0.54
350.456	9.54
350.587	11.54
350.717	-7.46
350.848	23.54
350.978	7.54
351.108	-0.46
351.239	4.54
351.369	-2.46
351.499	1.54
351.63	20.54
351.76	23.54
351.89	-7.46
352.021	6.54
352.151	1.54
352.281	5.54
352.412	4.54
352.542	12.54
352.672	-7.46
352.803	1.54
352.933	13.54
353.063	3.54
353.193	-3.46
353.324	-7.46
353.454	17.54
353.584	14.54
353.714	-13.46
353.845	7.54
353.975	5.54
354.105	4.54
354.235	7.54
354.365	10.54
354.496	-5.46
354.626	18.54
354.756	19.54
354.886	1.54
355.016	12.54
355.146	3.54
355.277	16.54
355.407	5.54
355.537	-1.46
355.667	0.54
355.797	-1.46
355.927	0.54
356.057	5.54
356.187	2.54
356.318	3.54
356.448	12.54
356.578	1.54
356.708	14.54
356.838	2.54
356.968	-6.46
357.098	-1.46
357.228	26.54
357.358	10.54
357.488	-9.46
357.618	22.54
357.748	26.54
357.878	6.54
358.008	16.54
358.138	-5.46
358.268	-0.46
358.398	28.54
358.528	-14.46
358.658	13.54
358.788	-2.46
358.918	3.54
359.048	11.54
359.178	9.54
359.308	-4.46
359.438	32.54
359.568	22.54
359.698	20.54
359.827	2.54
359.957	3.54
360.087	1.54
360.217	5.54
360.347	6.54
360.477	28.54
360.607	-19.46
360.737	15.54
360.866	3.54
360.996	-7.46
361.126	-7.46
361.256	22.54
361.386	18.54
361.516	36.54
361.645	5.54
361.775	-4.46
361.905	-11.46
362.035	5.54
362.165	5.54
362.294	0.54
362.424	7.54
362.554	2.54
362.684	-3.46
362.813	6.54
362.943	12.54
363.073	-7.46
363.203	-3.46
363.332	2.54
363.462	-15.46
363.592	-8.46
363.721	-4.46
363.851	3.54
363.981	23.54
364.111	4.54
364.24	0.54
364.37	13.54
364.5	26.54
364.629	20.54
364.759	-2.46
364.888	-27.46
365.018	15.54
365.148	5.54
365.277	8.54
365.407	-7.46
365.537	-5.46
365.666	-2.46
365.796	17.54
365.925	12.54
366.055	23.54
366.184	16.54
366.314	15.54
366.444	12.54
366.573	26.54
366.703	14.54
366.832	14.54
366.962	16.54
367.091	19.54
367.221	3.54
367.35	4.54
367.48	36.54
367.609	21.54
367.739	9.54
367.868	15.54
367.998	12.54
368.127	34.54
368.257	32.54
368.386	39.54
368.516	19.54
368.645	18.54
368.775	16.54
368.904	19.54
369.033	7.54
369.163	6.54
369.292	19.54
369.422	14.54
369.551	32.54
369.68	20.54
369.81	13.54
369.939	-1.46
370.069	29.54
370.198	21.54
370.327	0.54
370.457	21.54
370.586	9.54
370.715	9.54
370.845	5.54
370.974	27.54
371.103	19.54
371.233	16.54
371.362	7.54
371.491	-11.46
371.621	11.54
371.75	7.54
371.879	15.54
372.008	9.54
372.138	4.54
372.267	26.54
372.396	29.54
372.525	4.54
372.655	-5.46
372.784	14.54
372.913	0.54
373.042	11.54
373.172	23.54
373.301	-13.46
373.43	-23.46
373.559	-0.46
373.688	11.54
373.818	17.54
373.947	21.54
374.076	17.54
374.205	1.54
374.334	4.54
374.463	-12.46
374.593	1.54
374.722	10.54
374.851	1.54
374.98	-6.46
375.109	10.54
375.238	13.54
375.367	46.54
375.496	-0.46
375.625	-3.46
375.755	30.54
375.884	16.54
376.013	13.54
376.142	-1.46
376.271	-11.46
376.4	9.54
376.529	11.54
376.658	15.54
376.787	6.54
376.916	20.54
377.045	7.54
377.174	5.54
377.303	4.54
377.432	24.54
377.561	7.54
377.69	18.54
377.819	17.54
377.948	0.54
378.077	-4.46
378.206	2.54
378.335	-2.46
378.464	4.54
378.593	25.54
378.722	6.54
378.851	1.54
378.98	28.54
379.108	2.54
379.237	-10.46
379.366	-6.46
379.495	3.54
379.624	8.54
379.753	-4.46
379.882	22.54
380.011	-1.46
380.14	0.54
380.268	10.54
380.397	-5.46
380.526	44.54
380.655	-1.46
380.784	0.54
380.913	-3.46
381.041	5.54
381.17	-24.46
381.299	14.54
381.428	9.54
381.557	-1.46
381.685	14.54
381.814	27.54
381.943	1.54
382.072	-5.46
382.2	-6.46
382.329	19.54
382.458	15.54
382.587	28.54
382.715	25.54
382.844	21.54
382.973	-4.46
383.102	12.54
383.23	-4.46
383.359	9.54
383.488	-12.46
383.616	13.54
383.745	2.54
383.874	13.54
384.003	-6.46
384.131	0.54
384.26	-14.46
384.389	12.54
384.517	-12.46
384.646	-12.46
384.774	-1.46
384.903	14.54
385.032	-1.46
385.16	-5.46
385.289	-2.46
385.418	11.54
385.546	-22.46
385.675	7.54
385.803	-3.46
385.932	23.54
386.06	5.54
386.189	22.54
386.318	12.54
386.446	0.54
386.575	20.54
386.703	1.54
386.832	-0.46
386.96	-9.46
387.089	24.54
387.217	15.54
387.346	-15.46
387.474	-4.46
387.603	12.54
387.731	5.54
387.86	16.54
387.988	7.54
388.117	31.54
388.245	5.54
388.374	8.54
388.502	6.54
388.631	-5.46
388.759	-2.46
388.888	2.54
389.016	-4.46
389.144	7.54
389.273	8.54
389.401	8.54
389.53	-3.46
389.658	13.54
389.786	-6.46
389.915	-7.46
390.043	-7.46
390.172	12.54
390.3	27.54
390.428	9.54
390.557	-0.46
390.685	18.54
390.813	22.54
390.942	2.54
391.07	-13.46
391.198	-18.46
391.327	-3.46
391.455	-9.46
391.583	15.54
391.712	6.54
391.84	9.54
391.968	7.54
392.096	4.54
392.225	-8.46
392.353	17.54
392.481	-11.46
392.609	2.54
392.738	5.54
392.866	4.54
392.994	-17.46
393.122	27.54
393.251	-21.46
393.379	0.54
393.507	-8.46
393.635	-24.46
393.764	-1.46
393.892	19.54
394.02	5.54
394.148	-1.46
394.276	4.54
394.404	32.54
394.533	10.54
394.661	18.54
394.789	18.54
394.917	29.54
395.045	-4.46
395.173	0.54
395.302	-3.46
395.43	3.54
395.558	4.54
395.686	21.54
395.814	-7.46
395.942	3.54
396.07	2.54
396.198	20.54
396.326	25.54
396.454	23.54
396.582	32.54
396.711	-4.46
396.839	14.54
396.967	26.54
397.095	10.54
397.223	21.54
397.351	42.54
397.479	21.54
397.607	-0.46
397.735	16.54
397.863	28.54
397.991	26.54
398.119	2.54
398.247	1.54
398.375	-4.46
398.503	8.54
398.631	11.54
398.759	27.54
398.887	22.54
399.015	5.54
399.143	1.54
399.271	20.54
399.399	26.54
399.526	6.54
399.654	20.54
399.782	-1.46
399.91	26.54
400.038	32.54
400.166	0.54
400.294	11.54
400.422	-21.46
400.55	0.54
400.678	10.54
400.805	-9.46
400.933	-4.46
401.061	8.54
401.189	4.54
401.317	18.54
401.445	26.54
401.573	19.54
401.7	1.54
401.828	-5.46
401.956	6.54
402.084	24.54
402.212	7.54
402.34	21.54
402.467	15.54
402.595	26.54
402.723	16.54
402.851	22.54
402.978	17.54
403.106	19.54
403.234	16.54
403.362	19.54
403.489	26.54
403.617	13.54
403.745	0.54
403.873	-1.46
404	14.54
404.128	11.54
404.256	10.54
404.384	25.54
404.511	15.54
404.639	-8.46
404.767	-3.46
404.894	-0.46
405.022	22.54
405.15	9.54
405.277	3.54
405.405	-10.46
405.533	11.54
405.66	-4.46
405.788	-1.46
405.916	-9.46
406.043	-11.46
406.171	-17.46
406.299	9.54
406.426	5.54
406.554	17.54
406.681	24.54
406.809	8.54
406.937	11.54
407.064	-6.46
407.192	18.54
407.319	25.54
407.447	6.54
407.574	28.54
407.702	8.54
407.83	10.54
407.957	12.54
408.085	6.54
408.212	-0.46
408.34	9.54
408.467	1.54
408.595	-3.46
408.722	-5.46
408.85	23.54
408.977	-0.46
409.105	9.54
409.232	7.54
409.36	0.54
409.487	6.54
409.615	3.54
409.742	20.54
409.87	27.54
409.997	38.54
410.125	34.54
410.252	49.54
410.379	49.54
410.507	33.54
410.634	23.54
410.762	13.54
410.889	14.54
411.017	9.54
411.144	17.54
411.271	10.54
411.399	-5.46
411.526	1.54
411.653	19.54
411.781	29.54
411.908	22.54
412.036	11.54
412.163	9.54
412.29	25.54
412.418	-1.46
412.545	17.54
412.672	4.54
412.8	46.54
412.927	25.54
413.054	27.54
413.182	15.54
413.309	4.54
413.436	-24.46
413.564	2.54
413.691	5.54
413.818	38.54
413.945	3.54
414.073	-3.46
414.2	12.54
414.327	19.54
414.454	22.54
414.582	18.54
414.709	-11.46
414.836	-2.46
414.963	6.54
415.091	15.54
415.218	-3.46
415.345	3.54
415.472	0.54
415.6	-14.46
415.727	18.54
415.854	15.54
415.981	-4.46
416.108	3.54
416.236	11.54
416.363	14.54
416.49	18.54
416.617	10.54
416.744	19.54
416.871	13.54
416.998	4.54
417.126	6.54
417.253	2.54
417.38	22.54
417.507	5.54
417.634	28.54
417.761	17.54
417.888	20.54
418.015	7.54
418.143	7.54
418.27	33.54
418.397	17.54
418.524	5.54
418.651	12.54
418.778	1.54
418.905	36.54
419.032	21.54
419.159	-0.46
419.286	37.54
419.413	18.54
419.54	9.54
419.667	3.54
419.794	-3.46
419.921	3.54
420.048	1.54
420.175	22.54
420.302	7.54
420.429	14.54
420.556	-3.46
420.683	3.54
420.81	-17.46
420.937	3.54
421.064	19.54
421.191	14.54
421.318	11.54
421.445	26.54
421.572	1.54
421.699	22.54
421.826	7.54
421.953	5.54
422.08	12.54
422.207	-5.46
422.334	-25.46
422.461	28.54
422.588	4.54
422.714	12.54
422.841	18.54
422.968	20.54
423.095	22.54
423.222	4.54
423.349	2.54
423.476	4.54
423.603	-8.46
423.729	2.54
423.856	5.54
423.983	13.54
424.11	-18.46
424.237	-2.46
424.364	3.54
424.491	-1.46
424.617	-12.46
424.744	-8.46
424.871	10.54
424.998	4.54
425.125	-13.46
425.251	-3.46
425.378	-16.46
425.505	-3.46
425.632	8.54
425.758	15.54
425.885	8.54
426.012	26.54
426.139	40.54
426.266	4.54
426.392	29.54
426.519	10.54
426.646	-3.46
426.772	24.54
426.899	25.54
427.026	15.54
427.153	11.54
427.279	30.54
427.406	10.54
427.533	9.54
427.659	-1.46
427.786	11.54
427.913	16.54
428.039	4.54
428.166	-3.46
428.293	-1.46
428.419	28.54
428.546	13.54
428.673	-1.46
428.799	-14.46
428.926	-19.46
429.053	21.54
429.179	-16.46
429.306	10.54
429.433	38.54
429.559	21.54
429.686	-8.46
429.812	4.54
429.939	1.54
430.066	14.54
430.192	-7.46
430.319	33.54
430.445	12.54
430.572	8.54
430.699	-5.46
430.825	3.54
430.952	6.54
431.078	7.54
431.205	0.54
431.331	2.54
431.458	28.54
431.584	36.54
431.711	-6.46
431.837	11.54
431.964	0.54
432.09	12.54
432.217	-5.46
432.343	4.54
432.47	22.54
432.596	14.54
432.723	-10.46
432.849	-11.46
432.976	4.54
433.102	5.54
433.229	10.54
433.355	42.54
433.482	71.54
433.608	151.54
433.735	144.54
433.861	134.54
433.987	137.54
434.114	240.54
434.24	205.54
434.367	71.54
434.493	10.54
434.62	37.54
434.746	22.54
434.872	4.54
434.999	10.54
435.125	4.54
435.252	-18.46
435.378	1.54
435.504	18.54
435.631	21.54
435.757	2.54
435.883	8.54
436.01	2.54
436.136	-11.46
436.262	20.54
436.389	17.54
436.515	15.54
436.641	6.54
436.768	18.54
436.894	38.54
437.02	8.54
437.147	16.54
437.273	16.54
437.399	18.54
437.526	38.54
437.652	-3.46
437.778	13.54
437.904	-2.46
438.031	3.54
438.157	-7.46
438.283	8.54
438.409	-5.46
438.536	-11.46
438.662	17.54
438.788	25.54
438.914	-6.46
439.041	13.54
439.167	28.54
439.293	1.54
439.419	5.54
439.546	12.54
439.672	13.54
439.798	22.54
439.924	30.54
440.05	25.54
440.177	24.54
440.303	6.54
440.429	15.54
440.555	18.54
440.681	3.54
440.807	28.54
440.934	25.54
441.06	17.54
441.186	14.54
441.312	-5.46
441.438	8.54
441.564	17.54
441.69	32.54
441.816	10.54
441.943	-6.46
442.069	13.54
442.195	-4.46
442.321	17.54
442.447	-2.46
442.573	4.54
442.699	-2.46
442.825	-7.46
442.951	20.54
443.077	23.54
443.203	14.54
443.33	4.54
443.456	-4.46
443.582	-1.46
443.708	8.54
443.834	20.54
443.96	11.54
444.086	0.54
444.212	14.54
444.338	29.54
444.464	29.54
444.59	35.54
444.716	12.54
444.842	20.54
444.968	-11.46
445.094	19.54
445.22	-7.46
445.346	-18.46
445.472	-0.46
445.598	14.54
445.724	12.54
445.85	9.54
445.976	12.54
446.102	-3.46
446.228	11.54
446.354	10.54
446.48	21.54
446.605	17.54
446.731	0.54
446.857	-2.46
446.983	-5.46
447.109	13.54
447.235	11.54
447.361	0.54
447.487	24.54
447.613	-2.46
447.739	0.54
447.865	4.54
447.99	5.54
448.116	26.54
448.242	13.54
448.368	2.54
448.494	8.54
448.62	23.54
448.746	10.54
448.872	6.54
448.997	12.54
449.123	11.54
449.249	25.54
449.375	2.54
449.501	-4.46
449.627	-0.46
449.752	45.54
449.878	1.54
450.004	13.54
450.13	23.54
450.256	6.54
450.381	23.54
450.507	-5.46
450.633	6.54
450.759	30.54
450.884	1.54
451.01	16.54
451.136	17.54
451.262	20.54
451.388	20.54
451.513	4.54
451.639	19.54
451.765	18.54
451.89	34.54
452.016	22.54
452.142	6.54
452.268	30.54
452.393	27.54
452.519	3.54
452.645	20.54
452.771	0.54
452.896	2.54
453.022	2.54
453.148	19.54
453.273	11.54
453.399	18.54
453.525	-12.46
453.65	16.54
453.776	21.54
453.902	19.54
454.027	12.54
454.153	17.54
454.279	23.54
454.404	-1.46
454.53	26.54
454.656	52.54
454.781	9.54
454.907	14.54
455.032	10.54
455.158	25.54
455.284	28.54
455.409	13.54
455.535	20.54
455.66	9.54
455.786	18.54
455.912	7.54
456.037	-4.46
456.163	5.54
456.288	10.54
456.414	-11.46
456.539	10.54
456.665	17.54
456.791	29.54
456.916	3.54
457.042	23.54
457.167	1.54
457.293	29.54
457.418	21.54
457.544	4.54
457.669	3.54
457.795	27.54
457.92	14.54
458.046	24.54
458.171	24.54
458.297	7.54
458.422	8.54
458.548	1.54
458.673	19.54
458.799	10.54
458.924	-4.46
459.05	10.54
459.175	11.54
459.301	27.54
459.426	18.54
459.552	15.54
459.677	9.54
459.803	17.54
459.928	6.54
460.053	-8.46
460.179	7.54
460.304	25.54
460.43	-9.46
460.555	11.54
460.681	1.54
460.806	4.54
460.931	6.54
461.057	26.54
461.182	16.54
461.308	15.54
461.433	5.54
461.558	-5.46
461.684	14.54
461.809	16.54
461.934	17.54
462.06	32.54
462.185	11.54
462.311	22.54
462.436	17.54
462.561	12.54
462.687	8.54
462.812	32.54
462.937	-1.46
463.063	-5.46
463.188	-0.46
463.313	22.54
463.439	-10.46
463.564	14.54
463.689	13.54
463.814	16.54
463.94	14.54
464.065	30.54
464.19	21.54
464.316	-1.46
464.441	-1.46
464.566	0.54
464.692	-1.46
464.817	4.54
464.942	-1.46
465.067	-2.46
465.193	-24.46
465.318	1.54
465.443	0.54
465.568	13.54
465.694	16.54
465.819	29.54
465.944	7.54
466.069	14.54
466.194	7.54
466.32	25.54
466.445	19.54
466.57	5.54
466.695	9.54
466.82	33.54
466.946	14.54
467.071	26.54
467.196	10.54
467.321	7.54
467.446	-1.46
467.572	14.54
467.697	-9.46
467.822	19.54
467.947	28.54
468.072	0.54
468.197	11.54
468.323	-2.46
468.448	4.54
468.573	-8.46
468.698	-2.46
468.823	7.54
468.948	8.54
469.073	4.54
469.198	16.54
469.324	14.54
469.449	21.54
469.574	33.54
469.699	33.54
469.824	26.54
469.949	13.54
470.074	26.54
470.199	42.54
470.324	17.54
470.449	32.54
470.574	28.54
470.7	35.54
470.825	30.54
470.95	30.54
471.075	2.54
471.2	6.54
471.325	23.54
471.45	0.54
471.575	17.54
471.7	27.54
471.825	4.54
471.95	18.54
472.075	17.54
472.2	8.54
472.325	21.54
472.45	-12.46
472.575	8.54
472.7	12.54
472.825	36.54
472.95	18.54
473.075	2.54
473.2	5.54
473.325	4.54
473.45	12.54
473.575	10.54
473.7	-11.46
473.825	11.54
473.95	13.54
474.075	29.54
474.2	9.54
474.325	6.54
474.45	20.54
474.574	14.54
474.699	15.54
474.824	11.54
474.949	-2.46
475.074	-4.46
475.199	24.54
475.324	26.54
475.449	14.54
475.574	26.54
475.699	13.54
475.824	4.54
475.949	5.54
476.073	16.54
476.198	5.54
476.323	16.54
476.448	16.54
476.573	23.54
476.698	34.54
476.823	15.54
476.947	9.54
477.072	18.54
477.197	3.54
477.322	-7.46
477.447	2.54
477.572	15.54
477.697	-2.46
477.821	-3.46
477.946	5.54
478.071	13.54
478.196	13.54
478.321	2.54
478.445	8.54
478.57	1.54
478.695	-11.46
478.82	22.54
478.945	18.54
479.069	0.54
479.194	21.54
479.319	16.54
479.444	29.54
479.569	2.54
479.693	25.54
479.818	7.54
479.943	22.54
480.068	32.54
480.192	27.54
480.317	17.54
480.442	8.54
480.567	14.54
480.691	27.54
480.816	18.54
480.941	12.54
481.066	14.54
481.19	26.54
481.315	20.54
481.44	7.54
481.564	8.54
481.689	11.54
481.814	23.54
481.938	22.54
482.063	9.54
482.188	14.54
482.313	40.54
482.437	11.54
482.562	20.54
482.687	2.54
482.811	32.54
482.936	25.54
483.061	19.54
483.185	12.54
483.31	21.54
483.435	22.54
483.559	13.54
483.684	8.54
483.808	25.54
483.933	25.54
484.058	4.54
484.182	19.54
484.307	9.54
484.432	17.54
484.556	21.54
484.681	20.54
484.805	29.54
484.93	34.54
485.055	51.54
485.179	78.54
485.304	126.54
485.428	373.54
485.553	1272.54
485.678	1783.54
485.802	1644.54
485.927	1817.54
486.051	2730.54
486.176	1655.54
486.3	444.54
486.425	164.54
486.549	92.54
486.674	58.54
486.799	42.54
486.923	31.54
487.048	21.54
487.172	25.54
487.297	41.54
487.421	24.54
487.546	30.54
487.67	33.54
487.795	24.54
487.919	17.54
488.044	39.54
488.168	14.54
488.293	8.54
488.417	8.54
488.542	33.54
488.666	42.54
488.791	35.54
488.915	10.54
489.04	18.54
489.164	24.54
489.289	26.54
489.413	14.54
489.538	29.54
489.662	37.54
489.786	13.54
489.911	42.54
490.035	24.54
490.16	1.54
490.284	5.54
490.409	3.54
490.533	2.54
490.658	23.54
490.782	6.54
490.906	10.54
491.031	19.54
491.155	18.54
491.28	29.54
491.404	13.54
491.528	27.54
491.653	17.54
491.777	24.54
491.902	13.54
492.026	10.54
492.15	16.54
492.275	30.54
492.399	12.54
492.524	18.54
492.648	30.54
492.772	23.54
492.897	34.54
493.021	16.54
493.145	24.54
493.27	20.54
493.394	27.54
493.518	1.54
493.643	7.54
493.767	31.54
493.891	8.54
494.016	24.54
494.14	12.54
494.264	30.54
494.389	37.54
494.513	10.54
494.637	-12.46
494.762	26.54
494.886	15.54
495.01	29.54
495.134	27.54
495.259	10.54
495.383	14.54
495.507	5.54
495.632	42.54
495.756	32.54
495.88	23.54
496.004	14.54
496.129	12.54
496.253	-1.46
496.377	22.54
496.501	28.54
496.626	22.54
496.75	8.54
496.874	25.54
496.998	24.54
497.123	48.54
497.247	13.54
497.371	13.54
497.495	8.54
497.62	15.54
497.744	-8.46
497.868	-3.46
497.992	3.54
498.116	24.54
498.241	33.54
498.365	12.54
498.489	8.54
498.613	29.54
498.737	5.54
498.862	14.54
498.986	12.54
499.11	21.54
499.234	4.54
499.358	16.54
499.482	0.54
499.607	25.54
499.731	15.54
499.855	16.54
499.979	17.54
500.103	19.54
500.227	24.54
500.351	17.54
500.476	6.54
500.6	28.54
500.724	26.54
500.848	11.54
500.972	25.54
501.096	19.54
501.22	20.54
501.344	5.54
501.469	23.54
501.593	23.54
501.717	31.54
501.841	15.54
501.965	20.54
502.089	8.54
502.213	5.54
502.337	2.54
502.461	-4.46
502.585	12.54
502.709	7.54
502.834	13.54
502.958	13.54
503.082	21.54
503.206	30.54
503.33	44.54
503.454	41.54
503.578	44.54
503.702	20.54
503.826	14.54
503.95	30.54
504.074	22.54
504.198	33.54
504.322	2.54
504.446	10.54
504.57	30.54
504.694	25.54
504.818	22.54
504.942	33.54
505.066	22.54
505.19	13.54
505.314	28.54
505.438	6.54
505.562	6.54
505.686	26.54
505.81	12.54
505.934	15.54
506.058	5.54
506.182	4.54
506.306	22.54
506.43	11.54
506.554	19.54
506.678	-4.46
506.802	18.54
506.926	25.54
507.05	12.54
507.174	26.54
507.298	24.54
507.422	37.54
507.546	25.54
507.67	36.54
507.794	11.54
507.918	17.54
508.042	10.54
508.165	14.54
508.289	9.54
508.413	7.54
508.537	-5.46
508.661	17.54
508.785	-9.46
508.909	10.54
509.033	23.54
509.157	1.54
509.281	12.54
509.405	6.54
509.528	35.54
509.652	21.54
509.776	5.54
509.9	7.54
510.024	10.54
510.148	9.54
510.272	27.54
510.396	23.54
510.519	3.54
510.643	3.54
510.767	10.54
510.891	21.54
511.015	12.54
511.139	24.54
511.263	36.54
511.386	0.54
511.51	23.54
511.634	2.54
511.758	9.54
511.882	-5.46
512.006	4.54
512.129	32.54
512.253	42.54
512.377	24.54
512.501	15.54
512.625	12.54
512.748	18.54
512.872	-5.46
512.996	12.54
513.12	13.54
513.244	9.54
513.367	8.54
513.491	9.54
513.615	19.54
513.739	18.54
513.862	11.54
513.986	13.54
514.11	25.54
514.234	4.54
514.358	17.54
514.481	25.54
514.605	8.54
514.729	21.54
514.853	27.54
514.976	13.54
515.1	13.54
515.224	19.54
515.348	4.54
515.471	12.54
515.595	12.54
515.719	22.54
515.842	23.54
515.966	11.54
516.09	26.54
516.214	19.54
516.337	41.54
516.461	24.54
516.585	20.54
516.708	16.54
516.832	32.54
516.956	22.54
517.08	17.54
517.203	-5.46
517.327	17.54
517.451	13.54
517.574	41.54
517.698	15.54
517.822	28.54
517.945	17.54
518.069	30.54
518.193	64.54
518.316	30.54
518.44	36.54
518.564	8.54
518.687	11.54
518.811	28.54
518.935	47.54
519.058	31.54
519.182	29.54
519.306	25.54
519.429	17.54
519.553	66.54
519.676	26.54
519.8	2.54
519.924	4.54
520.047	19.54
520.171	14.54
520.294	4.54
520.418	34.54
520.542	-5.46
520.665	30.54
520.789	30.54
520.913	-9.46
521.036	-7.46
521.16	11.54
521.283	17.54
521.407	16.54
521.53	24.54
521.654	-6.46
521.778	8.54
521.901	18.54
522.025	18.54
522.148	4.54
522.272	23.54
522.395	22.54
522.519	9.54
522.643	8.54
522.766	2.54
522.89	12.54
523.013	45.54
523.137	0.54
523.26	-3.46
523.384	8.54
523.507	26.54
523.631	31.54
523.754	16.54
523.878	10.54
524.002	26.54
524.125	7.54
524.249	-9.46
524.372	11.54
524.496	8.54
524.619	22.54
524.743	13.54
524.866	28.54
524.99	4.54
525.113	5.54
525.237	22.54
525.36	12.54
525.484	22.54
525.607	-18.46
525.731	0.54
525.854	8.54
525.978	19.54
526.101	16.54
526.224	2.54
526.348	16.54
526.471	18.54
526.595	28.54
526.718	-5.46
526.842	-7.46
526.965	3.54
527.089	13.54
527.212	15.54
527.336	-7.46
527.459	29.54
527.582	8.54
527.706	17.54
527.829	12.54
527.953	6.54
528.076	-3.46
528.2	24.54
528.323	12.54
528.446	17.54
528.57	4.54
528.693	25.54
528.817	-1.46
528.94	29.54
529.064	48.54
529.187	11.54
529.31	4.54
529.434	2.54
529.557	17.54
529.68	17.54
529.804	1.54
529.927	-13.46
530.051	2.54
530.174	0.54
530.297	6.54
530.421	2.54
530.544	22.54
530.668	18.54
530.791	17.54
530.914	9.54
531.038	12.54
531.161	-2.46
531.284	16.54
531.408	6.54
531.531	16.54
531.654	3.54
531.778	13.54
531.901	-6.46
532.024	17.54
532.148	13.54
532.271	12.54
532.394	14.54
532.518	25.54
532.641	33.54
532.764	33.54
532.888	25.54
533.011	-1.46
533.134	-9.46
533.258	29.54
533.381	-14.46
533.504	13.54
533.628	16.54
533.751	26.54
533.874	14.54
533.997	0.54
534.121	0.54
534.244	-6.46
534.367	-7.46
534.491	10.54
534.614	9.54
534.737	31.54
534.86	20.54
534.984	-0.46
535.107	3.54
535.23	6.54
535.354	9.54
535.477	-6.46
535.6	5.54
535.723	21.54
535.847	9.54
535.97	-5.46
536.093	7.54
536.216	-4.46
536.34	1.54
536.463	5.54
536.586	13.54
536.709	9.54
536.833	18.54
536.956	9.54
537.079	12.54
537.202	15.54
537.325	7.54
537.449	4.54
537.572	30.54
537.695	5.54
537.818	10.54
537.941	-4.46
538.065	12.54
538.188	5.54
538.311	29.54
538.434	19.54
538.558	14.54
538.681	26.54
538.804	-2.46
538.927	15.54
539.05	4.54
539.173	20.54
539.297	-1.46
539.42	20.54
539.543	4.54
539.666	10.54
539.789	20.54
539.913	4.54
540.036	7.54
540.159	22.54
540.282	5.54
540.405	9.54
540.528	8.54
540.651	12.54
540.775	15.54
540.898	28.54
541.021	11.54
541.144	10.54
541.267	-2.46
541.39	3.54
541.513	19.54
541.637	20.54
541.76	-12.46
541.883	16.54
542.006	9.54
542.129	22.54
542.252	-5.46
542.375	32.54
542.498	8.54
542.622	18.54
542.745	0.54
542.868	2.54
542.991	20.54
543.114	2.54
543.237	7.54
543.36	42.54
543.483	25.54
543.606	14.54
543.73	20.54
543.853	15.54
543.976	3.54
544.099	17.54
544.222	11.54
544.345	4.54
544.468	14.54
544.591	14.54
544.714	5.54
544.837	21.54
544.96	21.54
545.083	35.54
545.206	11.54
545.329	20.54
545.453	8.54
545.576	-4.46
545.699	14.54
545.822	13.54
545.945	15.54
546.068	17.54
546.191	11.54
546.314	6.54
546.437	27.54
546.56	9.54
546.683	1.54
546.806	4.54
546.929	-3.46
547.052	-5.46
547.175	-2.46
547.298	15.54
547.421	7.54
547.544	1.54
547.667	5.54
547.79	18.54
547.913	-1.46
548.036	1.54
548.159	10.54
548.282	29.54
548.405	10.54
548.528	6.54
548.651	1.54
548.774	22.54
548.897	23.54
549.02	33.54
549.143	32.54
549.266	16.54
549.389	13.54
549.512	5.54
549.635	16.54
549.758	21.54
549.881	18.54
550.004	11.54
550.127	16.54
550.25	3.54
550.373	0.54
550.496	25.54
550.619	2.54
550.742	-15.46
550.865	13.54
550.988	13.54
551.111	20.54
551.234	12.54
551.356	-7.46
551.479	-10.46
551.602	-0.46
551.725	20.54
551.848	36.54
551.971	38.54
552.094	23.54
552.217	-4.46
552.34	0.54
552.463	4.54
552.586	14.54
552.709	12.54
552.832	15.54
552.955	25.54
553.077	19.54
553.2	42.54
553.323	2.54
553.446	16.54
553.569	5.54
553.692	10.54
553.815	21.54
553.938	9.54
554.061	20.54
554.184	1.54
554.306	28.54
554.429	30.54
554.552	8.54
554.675	12.54
554.798	14.54
554.921	33.54
555.044	18.54
555.167	-3.46
555.29	1.54
555.412	5.54
555.535	13.54
555.658	11.54
555.781	14.54
555.904	16.54
556.027	-2.46
556.15	-2.46
556.272	10.54
556.395	18.54
556.518	-1.46
556.641	3.54
556.764	16.54
556.887	10.54
557.01	2.54
557.132	6.54
557.255	17.54
557.378	12.54
557.501	1.54
557.624	16.54
557.747	13.54
557.869	25.54
557.992	27.54
558.115	23.54
558.238	0.54
558.361	18.54
558.483	26.54
558.606	-2.46
558.729	1.54
558.852	22.54
558.975	26.54
559.098	23.54
559.22	35.54
559.343	18.54
559.466	11.54
559.589	14.54
559.712	15.54
559.834	9.54
559.957	8.54
560.08	16.54
560.203	24.54
560.325	21.54
560.448	27.54
560.571	13.54
560.694	-3.46
560.817	28.54
560.939	17.54
561.062	-3.46
561.185	19.54
561.308	7.54
561.43	-1.46
561.553	1.54
561.676	19.54
561.799	12.54
561.921	-19.46
562.044	1.54
562.167	2.54
562.29	21.54
562.413	18.54
562.535	10.54
562.658	-2.46
562.781	5.54
562.903	13.54
563.026	16.54
563.149	37.54
563.272	35.54
563.394	9.54
563.517	3.54
563.64	14.54
563.763	7.54
563.885	21.54
564.008	27.54
564.131	21.54
564.254	9.54
564.376	16.54
564.499	3.54
564.622	-15.46
564.744	17.54
564.867	5.54
564.99	21.54
565.113	7.54
565.235	12.54
565.358	0.54
565.481	-12.46
565.603	18.54
565.726	13.54
565.849	22.54
565.971	24.54
566.094	10.54
566.217	20.54
566.34	22.54
566.462	11.54
566.585	10.54
566.708	19.54
566.83	6.54
566.953	20.54
567.076	11.54
567.198	11.54
567.321	-2.46
567.444	21.54
567.566	12.54
567.689	-8.46
567.812	-3.46
567.934	13.54
568.057	9.54
568.18	6.54
568.302	-1.46
568.425	-2.46
568.548	16.54
568.67	14.54
568.793	7.54
568.916	3.54
569.038	14.54
569.161	20.54
569.283	20.54
569.406	11.54
569.529	-4.46
569.651	22.54
569.774	10.54
569.897	25.54
570.019	19.54
570.142	29.54
570.265	19.54
570.387	9.54
570.51	13.54
570.632	9.54
570.755	-5.46
570.878	19.54
571	9.54
571.123	-3.46
571.246	17.54
571.368	4.54
571.491	19.54
571.613	11.54
571.736	-8.46
571.859	9.54
571.981	-16.46
572.104	2.54
572.226	19.54
572.349	12.54
572.472	10.54
572.594	19.54
572.717	3.54
572.839	9.54
572.962	22.54
573.085	12.54
573.207	25.54
573.33	19.54
573.452	26.54
573.575	24.54
573.697	0.54
573.82	12.54
573.943	-9.46
574.065	16.54
574.188	3.54
574.31	16.54
574.433	12.54
574.555	25.54
574.678	9.54
574.801	5.54
574.923	0.54
575.046	7.54
575.168	14.54
575.291	19.54
575.413	14.54
575.536	12.54
575.659	21.54
575.781	0.54
575.904	-13.46
576.026	6.54
576.149	1.54
576.271	6.54
576.394	22.54
576.516	22.54
576.639	16.54
576.761	3.54
576.884	-3.46
577.007	19.54
577.129	13.54
577.252	1.54
577.374	32.54
577.497	17.54
577.619	17.54
577.742	5.54
577.864	13.54
577.987	18.54
578.109	34.54
578.232	20.54
578.354	27.54
578.477	5.54
578.599	13.54
578.722	15.54
578.844	-5.46
578.967	30.54
579.089	18.54
579.212	-5.46
579.334	13.54
579.457	-4.46
579.579	22.54
579.702	4.54
579.824	0.54
579.947	-17.46
580.069	-10.46
580.192	-2.46
580.314	11.54
580.437	18.54
580.559	47.54
580.682	10.54
580.804	9.54
580.927	10.54
581.049	21.54
581.172	29.54
581.294	27.54
581.417	11.54
581.539	9.54
581.662	22.54
581.784	18.54
581.907	32.54
582.029	26.54
582.152	-3.46
582.274	12.54
582.396	12.54
582.519	25.54
582.641	1.54
582.764	11.54
582.886	16.54
583.009	3.54
583.131	8.54
583.254	13.54
583.376	38.54
583.499	13.54
583.621	8.54
583.743	30.54
583.866	10.54
583.988	21.54
584.111	28.54
584.233	18.54
584.356	19.54
584.478	0.54
584.601	1.54
584.723	8.54
584.845	25.54
584.968	4.54
585.09	-11.46
585.213	19.54
585.335	1.54
585.458	18.54
585.58	4.54
585.702	23.54
585.825	12.54
585.947	22.54
586.07	0.54
586.192	10.54
586.315	25.54
586.437	-7.46
586.559	3.54
586.682	-5.46
586.804	24.54
586.927	14.54
587.049	-2.46
587.171	12.54
587.294	16.54
587.416	19.54
587.539	1.54
587.661	2.54
587.783	4.54
587.906	16.54
588.028	22.54
588.151	24.54
588.273	28.54
588.395	14.54
588.518	14.54
588.64	12.54
588.763	10.54
588.885	16.54
589.007	23.54
589.13	4.54
589.252	-1.46
589.375	-1.46
589.497	19.54
589.619	18.54
589.742	9.54
589.864	41.54
589.986	18.54
590.109	-15.46
590.231	-4.46
590.354	24.54
590.476	6.54
590.598	13.54
590.721	-3.46
590.843	26.54
590.965	2.54
591.088	18.54
591.21	-6.46
591.332	22.54
591.455	-1.46
591.577	6.54
591.7	13.54
591.822	23.54
591.944	25.54
592.067	14.54
592.189	5.54
592.311	18.54
592.434	15.54
592.556	17.54
592.678	12.54
592.801	17.54
592.923	6.54
593.045	5.54
593.168	16.54
593.29	7.54
593.412	22.54
593.535	6.54
593.657	15.54
593.779	11.54
593.902	18.54
594.024	20.54
594.146	22.54
594.269	5.54
594.391	-11.46
594.513	8.54
594.636	1.54
594.758	16.54
594.88	30.54
595.003	31.54
595.125	13.54
595.247	0.54
595.37	18.54
595.492	5.54
595.614	23.54
595.737	10.54
595.859	16.54
595.981	7.54
596.104	21.54
596.226	2.54
596.348	9.54
596.471	11.54
596.593	12.54
596.715	3.54
596.838	6.54
596.96	-15.46
597.082	13.54
597.204	6.54
597.327	16.54
597.449	-7.46
597.571	11.54
597.694	16.54
597.816	4.54
597.938	9.54
598.061	-3.46
598.183	17.54
598.305	14.54
598.427	8.54
598.55	16.54
598.672	25.54
598.794	15.54
598.917	0.54
599.039	6.54
599.161	29.54
599.283	19.54
599.406	4.54
599.528	22.54
599.65	35.54
599.773	20.54
599.895	39.54
600.017	33.54
600.139	4.54
600.262	-7.46
600.384	2.54
600.506	15.54
600.628	14.54
600.751	31.54
600.873	4.54
600.995	9.54
601.118	26.54
601.24	12.54
601.362	21.54
601.484	18.54
601.607	17.54
601.729	8.54
601.851	16.54
601.973	24.54
602.096	12.54
602.218	13.54
602.34	28.54
602.462	29.54
602.585	8.54
602.707	-1.46
602.829	18.54
602.951	28.54
603.074	5.54
603.196	22.54
603.318	4.54
603.44	25.54
603.563	24.54
603.685	5.54
603.807	22.54
603.929	11.54
604.052	13.54
604.174	13.54
604.296	7.54
604.418	16.54
604.541	34.54
604.663	-1.46
604.785	17.54
604.907	16.54
605.03	6.54
605.152	37.54
605.274	7.54
605.396	2.54
605.519	-6.46
605.641	5.54
605.763	10.54
605.885	26.54
606.008	15.54
606.13	25.54
606.252	24.54
606.374	-1.46
606.496	5.54
606.619	6.54
606.741	13.54
606.863	44.54
606.985	46.54
607.108	15.54
607.23	23.54
607.352	11.54
607.474	6.54
607.596	22.54
607.719	13.54
607.841	6.54
607.963	-15.46
608.085	8.54
608.207	49.54
608.33	26.54
608.452	13.54
608.574	23.54
608.696	19.54
608.819	4.54
608.941	0.54
609.063	9.54
609.185	-1.46
609.307	24.54
609.43	12.54
609.552	6.54
609.674	-5.46
609.796	30.54
609.918	21.54
610.041	12.54
610.163	28.54
610.285	29.54
610.407	25.54
610.529	-1.46
610.652	14.54
610.774	9.54
610.896	15.54
611.018	-0.46
611.14	6.54
611.263	5.54
611.385	-4.46
611.507	18.54
611.629	-9.46
611.751	18.54
611.873	29.54
611.996	27.54
612.118	23.54
612.24	0.54
612.362	19.54
612.484	24.54
612.607	15.54
612.729	40.54
612.851	19.54
612.973	0.54
613.095	4.54
613.218	19.54
613.34	28.54
613.462	25.54
613.584	10.54
613.706	-0.46
613.828	26.54
613.951	38.54
614.073	6.54
614.195	6.54
614.317	13.54
614.439	23.54
614.561	41.54
614.684	20.54
614.806	20.54
614.928	16.54
615.05	21.54
615.172	23.54
615.294	25.54
615.417	2.54
615.539	-2.46
615.661	12.54
615.783	29.54
615.905	28.54
616.027	75.54
616.15	101.54
616.272	99.54
616.394	65.54
616.516	51.54
616.638	18.54
616.76	24.54
616.883	3.54
617.005	-19.46
617.127	1.54
617.249	18.54
617.371	6.54
617.493	21.54
617.615	23.54
617.738	25.54
617.86	8.54
617.982	8.54
618.104	31.54
618.226	5.54
618.348	-3.46
618.471	38.54
618.593	20.54
618.715	-15.46
618.837	12.54
618.959	10.54
619.081	25.54
619.203	15.54
619.326	11.54
619.448	11.54
619.57	21.54
619.692	6.54
619.814	16.54
619.936	11.54
620.058	27.54
620.181	33.54
620.303	12.54
620.425	16.54
620.547	6.54
620.669	6.54
620.791	18.54
620.913	10.54
621.036	0.54
621.158	1.54
621.28	15.54
621.402	8.54
621.524	10.54
621.646	22.54
621.768	0.54
621.891	15.54
622.013	7.54
622.135	-1.46
622.257	-10.46
622.379	11.54
622.501	14.54
622.623	8.54
622.745	14.54
622.868	7.54
622.99	14.54
623.112	5.54
623.234	6.54
623.356	24.54
623.478	-6.46
623.6	14.54
623.722	7.54
623.845	9.54
623.967	0.54
624.089	15.54
624.211	14.54
624.333	26.54
624.455	9.54
624.577	24.54
624.699	26.54
624.822	-3.46
624.944	5.54
625.066	21.54
625.188	0.54
625.31	17.54
625.432	24.54
625.554	12.54
625.676	12.54
625.799	9.54
625.921	12.54
626.043	7.54
626.165	-4.46
626.287	-15.46
626.409	8.54
626.531	10.54
626.653	7.54
626.775	2.54
626.898	14.54
627.02	7.54
627.142	29.54
627.264	16.54
627.386	-0.46
627.508	6.54
627.63	7.54
627.752	29.54
627.874	25.54
627.997	36.54
628.119	17.54
628.241	27.54
628.363	21.54
628.485	21.54
628.607	22.54
628.729	-5.46
628.851	-22.46
628.973	-3.46
629.096	-29.46
629.218	23.54
629.34	10.54
629.462	11.54
629.584	0.54
629.706	10.54
629.828	35.54
629.95	18.54
630.072	-2.46
630.195	14.54
630.317	15.54
630.439	6.54
630.561	18.54
630.683	10.54
630.805	25.54
630.927	28.54
631.049	12.54
631.171	-3.46
631.293	14.54
631.416	23.54
631.538	10.54
631.66	17.54
631.782	25.54
631.904	34.54
632.026	16.54
632.148	9.54
632.27	0.54
632.392	2.54
632.514	20.54
632.637	24.54
632.759	4.54
632.881	3.54
633.003	-10.46
633.125	5.54
633.247	14.54
633.369	16.54
633.491	4.54
633.613	25.54
633.735	-3.46
633.858	7.54
633.98	14.54
634.102	2.54
634.224	0.54
634.346	9.54
634.468	13.54
634.59	9.54
634.712	15.54
634.834	4.54
634.956	-3.46
635.078	-5.46
635.201	-5.46
635.323	9.54
635.445	-15.46
635.567	-2.46
635.689	21.54
635.811	4.54
635.933	13.54
636.055	7.54
636.177	10.54
636.299	21.54
636.421	2.54
636.544	-2.46
636.666	20.54
636.788	19.54
636.91	28.54
637.032	2.54
637.154	9.54
637.276	29.54
637.398	14.54
637.52	19.54
637.642	5.54
637.764	17.54
637.887	5.54
638.009	14.54
638.131	13.54
638.253	6.54
638.375	11.54
638.497	18.54
638.619	1.54
638.741	-5.46
638.863	-5.46
638.985	-1.46
639.107	13.54
639.23	12.54
639.352	8.54
639.474	-1.46
639.596	7.54
639.718	7.54
639.84	9.54
639.962	16.54
640.084	10.54
640.206	13.54
640.328	9.54
640.45	18.54
640.573	3.54
640.695	15.54
640.817	13.54
640.939	23.54
641.061	-0.46
641.183	5.54
641.305	16.54
641.427	12.54
641.549	10.54
641.671	4.54
641.793	-2.46
641.915	23.54
642.038	15.54
642.16	2.54
642.282	-5.46
642.404	0.54
642.526	4.54
642.648	5.54
642.77	0.54
642.892	0.54
643.014	14.54
643.136	16.54
643.258	18.54
643.381	30.54
643.503	29.54
643.625	5.54
643.747	-7.46
643.869	18.54
643.991	29.54
644.113	19.54
644.235	-1.46
644.357	2.54
644.479	22.54
644.601	-9.46
644.723	10.54
644.846	12.54
644.968	9.54
645.09	18.54
645.212	0.54
645.334	4.54
645.456	17.54
645.578	20.54
645.7	13.54
645.822	9.54
645.944	3.54
646.066	17.54
646.188	9.54
646.311	21.54
646.433	-0.46
646.555	42.54
646.677	38.54
646.799	34.54
646.921	24.54
647.043	29.54
647.165	8.54
647.287	-1.46
647.409	12.54
647.531	43.54
647.654	-18.46
647.776	8.54
647.898	12.54
648.02	-5.46
648.142	-9.46
648.264	4.54
648.386	9.54
648.508	3.54
648.63	-1.46
648.752	23.54
648.874	2.54
648.997	1.54
649.119	7.54
649.241	-5.46
649.363	24.54
649.485	17.54
649.607	4.54
649.729	-2.46
649.851	-12.46
649.973	17.54
650.095	1.54
650.217	9.54
650.34	0.54
650.462	20.54
650.584	8.54
650.706	11.54
650.828	23.54
650.95	-15.46
651.072	9.54
651.194	9.54
651.316	-5.46
651.438	10.54
651.56	5.54
651.683	-14.46
651.805	16.54
651.927	15.54
652.049	14.54
652.171	0.54
652.293	16.54
652.415	1.54
652.537	-9.46
652.659	21.54
652.781	27.54
652.903	11.54
653.026	25.54
653.148	11.54
653.27	11.54
653.392	19.54
653.514	19.54
653.636	0.54
653.758	-0.46
653.88	-2.46
654.002	-14.46
654.124	-0.46
654.247	-4.46
654.369	0.54
654.491	14.54
654.613	4.54
654.735	-5.46
654.857	13.54
654.979	11.54
655.101	23.54
655.223	30.54
655.345	31.54
655.468	30.54
655.59	30.54
655.712	31.54
655.834	18.54
655.956	45.54
656.078	43.54
656.2	59.54
656.322	38.54
656.444	25.54
656.566	42.54
656.689	64.54
656.811	63.54
656.933	85.54
657.055	100.54
657.177	154.54
657.299	263.54
657.421	505.54
657.543	1924.54
657.665	12656.54
657.787	15189.54
657.91	15338.54
658.032	15663.54
658.154	4702.54
658.276	4338.54
658.398	1332.54
658.52	1085.54
658.642	514.54
658.764	600.54
658.886	292.54
659.009	424.54
659.131	228.54
659.253	321.54
659.375	161.54
659.497	261.54
659.619	139.54
659.741	210.54
659.863	95.54
659.985	158.54
660.108	99.54
660.23	165.54
660.352	88.54
660.474	131.54
660.596	73.54
660.718	132.54
660.84	59.54
660.962	114.54
661.084	49.54
661.207	100.54
661.329	61.54
661.451	82.54
661.573	48.54
661.695	120.54
661.817	62.54
661.939	107.54
662.061	70.54
662.184	72.54
662.306	31.54
662.428	72.54
662.55	42.54
662.672	77.54
662.794	54.54
662.916	71.54
663.038	26.54
663.161	75.54
663.283	32.54
663.405	49.54
663.527	18.54
663.649	42.54
663.771	42.54
663.893	65.54
664.015	43.54
664.138	53.54
664.26	35.54
664.382	54.54
664.504	18.54
664.626	45.54
664.748	21.54
664.87	12.54
664.992	27.54
665.115	50.54
665.237	9.54
665.359	28.54
665.481	13.54
665.603	56.54
665.725	17.54
665.847	32.54
665.97	25.54
666.092	52.54
666.214	25.54
666.336	46.54
666.458	22.54
666.58	48.54
666.702	7.54
666.825	25.54
666.947	15.54
667.069	39.54
667.191	23.54
667.313	47.54
667.435	13.54
667.557	23.54
667.68	19.54
667.802	19.54
667.924	11.54
668.046	35.54
668.168	24.54
668.29	52.54
668.412	18.54
668.535	22.54
668.657	14.54
668.779	24.54
668.901	26.54
669.023	49.54
669.145	11.54
669.267	35.54
669.39	28.54
669.512	21.54
669.634	13.54
669.756	-1.46
669.878	13.54
670	29.54
670.123	10.54
670.245	38.54
670.367	21.54
670.489	39.54
670.611	8.54
670.733	3.54
670.856	6.54
670.978	38.54
671.1	36.54
671.222	20.54
671.344	9.54
671.466	22.54
671.589	-3.46
671.711	5.54
671.833	-1.46
671.955	18.54
672.077	3.54
672.199	30.54
672.322	14.54
672.444	17.54
672.566	25.54
672.688	20.54
672.81	25.54
672.932	19.54
673.055	4.54
673.177	4.54
673.299	27.54
673.421	7.54
673.543	15.54
673.665	34.54
673.788	11.54
673.91	21.54
674.032	9.54
674.154	18.54
674.276	22.54
674.399	8.54
674.521	11.54
674.643	19.54
674.765	22.54
674.887	25.54
675.009	0.54
675.132	2.54
675.254	8.54
675.376	13.54
675.498	19.54
675.62	26.54
675.743	11.54
675.865	24.54
675.987	-14.46
676.109	8.54
676.231	8.54
676.354	30.54
676.476	-2.46
676.598	18.54
676.72	10.54
676.842	17.54
676.965	2.54
677.087	9.54
677.209	11.54
677.331	28.54
677.453	19.54
677.576	13.54
677.698	14.54
677.82	17.54
677.942	-3.46
678.064	16.54
678.187	8.54
678.309	6.54
678.431	11.54
678.553	21.54
678.675	51.54
678.798	42.54
678.92	-0.46
679.042	18.54
679.164	-14.46
679.286	26.54
679.409	6.54
679.531	-10.46
679.653	2.54
679.775	23.54
679.898	-12.46
680.02	7.54
680.142	0.54
680.264	24.54
680.386	2.54
680.509	14.54
680.631	-0.46
680.753	8.54
680.875	-7.46
680.998	28.54
681.12	-5.46
681.242	16.54
681.364	11.54
681.486	21.54
681.609	6.54
681.731	5.54
681.853	2.54
681.975	5.54
682.098	16.54
682.22	34.54
682.342	11.54
682.464	30.54
682.587	1.54
682.709	2.54
682.831	-13.46
682.953	18.54
683.076	7.54
683.198	15.54
683.32	14.54
683.442	19.54
683.565	27.54
683.687	4.54
683.809	14.54
683.931	3.54
684.054	23.54
684.176	17.54
684.298	14.54
684.42	19.54
684.543	-7.46
684.665	1.54
684.787	0.54
684.909	28.54
685.032	12.54
685.154	-1.46
685.276	23.54
685.398	13.54
685.521	-12.46
685.643	-5.46
685.765	10.54
685.887	20.54
686.01	-10.46
686.132	5.54
686.254	5.54
686.377	20.54
686.499	12.54
686.621	19.54
686.743	8.54
686.866	9.54
686.988	17.54
687.11	14.54
687.232	3.54
687.355	-8.46
687.477	9.54
687.599	14.54
687.722	13.54
687.844	8.54
687.966	9.54
688.088	17.54
688.211	10.54
688.333	14.54
688.455	15.54
688.578	23.54
688.7	14.54
688.822	7.54
688.944	-11.46
689.067	42.54
689.189	2.54
689.311	7.54
689.434	1.54
689.556	0.54
689.678	9.54
689.801	-2.46
689.923	17.54
690.045	28.54
690.167	25.54
690.29	6.54
690.412	14.54
690.534	26.54
690.657	10.54
690.779	-14.46
690.901	17.54
691.024	22.54
691.146	13.54
691.268	6.54
691.391	28.54
691.513	23.54
691.635	35.54
691.758	17.54
691.88	32.54
692.002	13.54
692.125	-0.46
692.247	15.54
692.369	6.54
692.492	9.54
692.614	11.54
692.736	25.54
692.859	10.54
692.981	1.54
693.103	0.54
693.226	4.54
693.348	24.54
693.47	-1.46
693.593	16.54
693.715	-0.46
693.837	-7.46
693.96	-5.46
694.082	0.54
694.204	9.54
694.327	6.54
694.449	-1.46
694.571	2.54
694.694	5.54
694.816	20.54
694.938	19.54
695.061	7.54
695.183	14.54
695.305	-1.46
695.428	9.54
695.55	-13.46
695.672	4.54
695.795	23.54
695.917	18.54
696.04	0.54
696.162	1.54
696.284	6.54
696.407	16.54
696.529	21.54
696.651	33.54
696.774	11.54
696.896	10.54
697.019	24.54
697.141	14.54
697.263	-5.46
697.386	-1.46
697.508	5.54
697.63	27.54
697.753	1.54
697.875	16.54
697.998	-1.46
698.12	16.54
698.242	16.54
698.365	13.54
698.487	6.54
698.61	27.54
698.732	5.54
698.854	37.54
698.977	-2.46
699.099	16.54
699.221	0.54
699.344	2.54
699.466	10.54
699.589	14.54
699.711	-9.46
699.834	10.54
699.956	3.54
700.078	10.54
700.201	16.54
700.323	10.54
700.446	8.54
700.568	15.54
700.69	19.54
700.813	14.54
700.935	-5.46
701.058	5.54
701.18	8.54
701.302	11.54
701.425	9.54
701.547	7.54
701.67	1.54
701.792	20.54
701.915	0.54
702.037	-3.46
702.159	10.54
702.282	6.54
702.404	-8.46
702.527	18.54
702.649	4.54
702.772	22.54
702.894	-0.46
703.017	13.54
703.139	18.54
703.261	24.54
703.384	17.54
703.506	-9.46
703.629	3.54
703.751	17.54
703.874	12.54
703.996	-4.46
704.119	-13.46
704.241	1.54
704.364	3.54
704.486	18.54
704.608	11.54
704.731	-1.46
704.853	3.54
704.976	5.54
705.098	11.54
705.221	7.54
705.343	1.54
705.466	22.54
705.588	38.54
705.711	17.54
705.833	9.54
705.956	12.54
706.078	18.54
706.201	17.54
706.323	-2.46
706.446	-3.46
